time,Xangle,Yangle,Zangle,velocityX,velocityY,velocityZ,accelX,accelY,accelZ
0.01,0.0,0.0,0.0,0.0,-0.059042852,0.0,0.0,-5.9042854,-0.0
0.02,0.0,0.0,0.0,0.0,-0.11808579,0.0,0.0,-5.904293,-0.0
0.03,0.0,0.0,0.0,0.0,-0.17712896,0.0,0.0,-5.904317,-0.0
0.04,0.0,0.0,0.0,0.0,-0.23617251,0.0,0.0,-5.904356,-0.0
0.05,0.0,0.0,0.0,0.0,-0.29521662,0.0,0.0,-5.9044104,-0.0
0.06,0.0,0.0,0.0,0.0,-0.35426143,0.0,0.0,-5.904481,-0.0
0.07,0.0,0.0,0.0,0.0,-0.4133071,0.0,0.0,-5.904567,-0.0
0.08,0.0,0.0,0.0,0.0,-0.4723538,0.0,0.0,-5.9046683,-0.0
0.09,0.0,0.0,0.0,0.0,-0.53140163,0.0,0.0,-5.9047856,-0.0
0.10,0.0,0.0,0.0,0.0,-0.5904508,0.0,0.0,-5.9049187,-0.0
0.11,0.0,0.0,0.0,0.0,-0.6495015,0.0,0.0,-5.9050665,-0.0
0.12,0.0,0.0,0.0,0.0,-0.7085538,0.0,0.0,-5.9052305,-0.0
0.13,0.0,0.0,0.0,0.0,-0.76760787,0.0,0.0,-5.9054103,-0.0
0.14,0.0,0.0,0.0,0.0,-0.8266639,0.0,0.0,-5.905606,-0.0
0.15,0.0,0.0,0.0,0.0,-0.88572204,0.0,0.0,-5.905816,-0.0
0.16,0.0,0.0,0.0,0.0,-0.9447825,0.0,0.0,-5.906043,-0.0
0.17,0.0,0.0,0.0,0.0,-1.0038453,0.0,0.0,-5.906285,-0.0
0.18,0.0,0.0,0.0,0.0,-1.0629108,0.0,0.0,-5.9065433,-0.0
0.19,0.0,0.0,0.0,0.0,-1.121979,0.0,0.0,-5.9068165,-0.0
0.20,0.0,0.0,0.0,0.0,-1.1810501,0.0,0.0,-5.907105,-0.0
0.21,0.0,0.0,0.0,0.0,-1.2401241,0.0,0.0,-5.90741,-0.0
0.22,0.0,0.0,0.0,0.0,-1.2992014,0.0,0.0,-5.9077306,-0.0
0.23,0.0,0.0,0.0,0.0,-1.3582821,0.0,0.0,-5.9080663,-0.0
0.24,0.0,0.0,0.0,0.0,-1.4173663,0.0,0.0,-5.9084187,-0.0
0.25,0.0,0.0,0.0,0.0,-1.4764541,0.0,0.0,-5.908786,-0.0
0.26,0.0,0.0,0.0,0.0,-1.5355458,0.0,0.0,-5.9091682,-0.0
0.27,0.0,0.0,0.0,0.0,-1.5946414,0.0,0.0,-5.909568,-0.0
0.28,0.0,0.0,0.0,0.0,-1.6537412,0.0,0.0,-5.9099817,-0.0
0.29,0.0,0.0,0.0,0.0,-1.7128453,0.0,0.0,-5.910412,-0.0
0.30,0.0,0.0,0.0,0.0,-1.7719539,0.0,0.0,-5.910857,-0.0
0.31,0.0,0.0,0.0,0.0,-1.8310671,0.0,0.0,-5.911319,-0.0
0.32,0.0,0.0,0.0,0.0,-1.890185,0.0,0.0,-5.9117956,-0.0
0.33,0.0,0.0,0.0,0.0,-1.9493079,0.0,0.0,-5.912289,-0.0
0.34,0.0,0.0,0.0,0.0,-2.008436,0.0,0.0,-5.912797,-0.0
0.35,0.0,0.0,0.0,0.0,-2.0675693,0.0,0.0,-5.9133215,-0.0
0.36,0.0,0.0,0.0,0.0,-2.1267078,0.0,0.0,-5.9138613,-0.0
0.37,0.0,0.0,0.0,0.0,-2.185852,0.0,0.0,-5.9144173,-0.0
0.38,0.0,0.0,0.0,0.0,-2.245002,0.0,0.0,-5.914988,-0.0
0.39,0.0,0.0,0.0,0.0,-2.3041577,0.0,0.0,-5.915575,-0.0
0.40,0.0,0.0,0.0,0.0,-2.3633194,0.0,0.0,-5.9161777,-0.0
0.41,0.0,0.0,0.0,0.0,-2.4224873,0.0,0.0,-5.9167967,-0.0
0.42,0.0,0.0,0.0,0.0,-2.4816616,0.0,0.0,-5.917431,-0.0
0.43,0.0,0.0,0.0,0.0,-2.5408423,0.0,0.0,-5.9180813,-0.0
0.44,0.0,0.0,0.0,0.0,-2.6000297,0.0,0.0,-5.918747,-0.0
0.45,0.0,0.0,0.0,0.0,-2.659224,0.0,0.0,-5.919429,-0.0
0.46,0.0,0.0,0.0,0.0,-2.7184253,0.0,0.0,-5.9201255,-0.0
0.47,0.0,0.0,0.0,0.0,-2.7776337,0.0,0.0,-5.920839,-0.0
0.48,0.0,0.0,0.0,0.0,-2.8368495,0.0,0.0,-5.9215674,-0.0
0.49,0.0,0.0,0.0,0.0,-2.8960726,0.0,0.0,-5.9223127,-0.0
0.50,0.0,0.0,0.0,0.0,-2.9553034,0.0,0.0,-5.923073,-0.0
0.51,0.0,0.0,0.0,0.0,-3.0145419,0.0,0.0,-5.9238496,-0.0
0.52,0.0,0.0,0.0,0.0,-3.0737882,0.0,0.0,-5.9246416,-0.0
0.53,0.0,0.0,0.0,0.0,-3.1330426,0.0,0.0,-5.92545,-0.0
0.54,0.0,0.0,0.0,0.0,-3.1923053,0.0,0.0,-5.9262733,-0.0
0.55,0.0,0.0,0.0,0.0,-3.2515764,0.0,0.0,-5.927113,-0.0
0.56,0.0,0.0,0.0,0.0,-3.310856,0.0,0.0,-5.927969,-0.0
0.57,0.0,0.0,0.0,0.0,-3.3701446,0.0,0.0,-5.92884,-0.0
0.58,0.0,0.0,0.0,0.0,-3.429442,0.0,0.0,-5.929727,-0.0
0.59,0.0,0.0,0.0,0.0,-3.4887483,0.0,0.0,-5.93063,-0.0
0.60,0.0,0.0,0.0,0.0,-3.5480638,0.0,0.0,-5.93155,-0.0
0.61,0.0,0.0,0.0,0.0,-3.6073885,0.0,0.0,-5.9324846,-0.0
0.62,0.0,0.0,0.0,0.0,-3.6667228,0.0,0.0,-5.9334354,-0.0
0.63,0.0,0.0,0.0,0.0,-3.7260668,0.0,0.0,-5.934402,-0.0
0.64,0.0,0.0,0.0,0.0,-3.7854207,0.0,0.0,-5.9353848,-0.0
0.65,0.0,0.0,0.0,0.0,-3.8447845,0.0,0.0,-5.9363837,-0.0
0.66,0.0,0.0,0.0,0.0,-3.9041586,0.0,0.0,-5.937398,-0.0
0.67,0.0,0.0,0.0,0.0,-3.963543,0.0,0.0,-5.9384284,-0.0
0.68,0.0,0.0,0.0,0.0,-4.022938,0.0,0.0,-5.9394755,-0.0
0.69,0.0,0.0,0.0,0.0,-4.082343,0.0,0.0,-5.9405384,-0.0
0.70,0.0,0.0,0.0,0.0,-4.1417594,0.0,0.0,-5.9416165,-0.0
0.71,0.0,0.0,0.0,0.0,-4.2011867,0.0,0.0,-5.9427114,-0.0
0.72,0.0,0.0,0.0,0.0,-4.260625,0.0,0.0,-5.9438214,-0.0
0.73,0.0,0.0,0.0,0.0,-4.3200746,0.0,0.0,-5.944948,-0.0
0.74,0.0,0.0,0.0,0.0,-4.3795357,0.0,0.0,-5.9460907,-0.0
0.75,0.0,0.0,0.0,0.0,-4.439008,0.0,0.0,-5.9472494,-0.0
0.76,0.0,0.0,0.0,0.0,-4.4984922,0.0,0.0,-5.9484243,-0.0
0.77,0.0,0.0,0.0,0.0,-4.557988,0.0,0.0,-5.949615,-0.0
0.78,0.0,0.0,0.0,0.0,-4.6174965,0.0,0.0,-5.9508224,-0.0
0.79,0.0,0.0,0.0,0.0,-4.6770167,0.0,0.0,-5.952045,-0.0
0.80,0.0,0.0,0.0,0.0,-4.7365494,0.0,0.0,-5.9532847,-0.0
0.81,0.0,0.0,0.0,0.0,-4.796095,0.0,0.0,-5.9545393,-0.0
0.82,0.0,0.0,0.0,0.0,-4.855653,0.0,0.0,-5.9558115,-0.0
0.83,0.0,0.0,0.0,0.0,-4.9152236,0.0,0.0,-5.957099,-0.0
0.84,0.0,0.0,0.0,0.0,-4.9748077,0.0,0.0,-5.9584026,-0.0
0.85,0.0,0.0,0.0,0.0,-5.0344048,0.0,0.0,-5.9597225,-0.0
0.86,0.0,0.0,0.0,0.0,-5.094015,0.0,0.0,-5.961059,-0.0
0.87,0.0,0.0,0.0,0.0,-5.1536393,0.0,0.0,-5.9624114,-0.0
0.88,0.0,0.0,0.0,0.0,-5.2132773,0.0,0.0,-5.96378,-0.0
0.89,0.0,0.0,0.0,0.0,-5.272929,0.0,0.0,-5.9651647,-0.0
0.90,0.0,0.0,0.0,0.0,-5.332595,0.0,0.0,-5.966566,-0.0
0.91,0.0,0.0,0.0,0.0,-5.392275,0.0,0.0,-5.9679837,-0.0
0.92,0.0,0.0,0.0,0.0,-5.451969,0.0,0.0,-5.9694176,-0.0
0.93,0.0,0.0,0.0,0.0,-5.5116777,0.0,0.0,-5.970867,-0.0
0.94,0.0,0.0,0.0,0.0,-5.571401,0.0,0.0,-5.972334,-0.0
0.95,0.0,0.0,0.0,0.0,-5.6311393,0.0,0.0,-5.973817,-0.0
0.96,0.0,0.0,0.0,0.0,-5.690892,0.0,0.0,-5.975315,-0.0
0.97,0.0,0.0,0.0,0.0,-5.7506604,0.0,0.0,-5.976831,-0.0
0.98,0.0,0.0,0.0,0.0,-5.810444,0.0,0.0,-5.978363,-0.0
0.99,0.0,0.0,0.0,0.0,-5.870243,0.0,0.0,-5.979911,-0.0
1.00,0.0,0.0,0.0,0.0,-5.930058,0.0,0.0,-5.9814754,-0.0
1.01,0.0,0.0,0.0,0.0,-5.9898887,0.0,0.0,-5.9830565,-0.0
1.02,0.0,0.0,0.0,0.0,-6.049735,0.0,0.0,-5.984654,-0.0
1.03,0.0,0.0,0.0,0.0,-6.1095977,0.0,0.0,-5.986268,-0.0
1.04,0.0,0.0,0.0,0.0,-6.1694765,0.0,0.0,-5.9878983,-0.0
1.05,0.0,0.0,0.0,0.0,-6.229372,0.0,0.0,-5.9895453,-0.0
1.06,0.0,0.0,0.0,0.0,-6.289284,0.0,0.0,-5.991209,-0.0
1.07,0.0,0.0,0.0,0.0,-6.349213,0.0,0.0,-5.992889,-0.0
1.08,0.0,0.0,0.0,0.0,-6.409159,0.0,0.0,-5.9945855,-0.0
1.09,0.0,0.0,0.0,0.0,-6.469122,0.0,0.0,-5.996299,-0.0
1.10,0.0,0.0,0.0,0.0,-6.5291023,0.0,0.0,-5.9980283,-0.0
1.11,0.0,0.0,0.0,0.0,-6.5891,0.0,0.0,-5.999775,-0.0
1.12,0.0,0.0,0.0,0.0,-6.649115,0.0,0.0,-6.001538,-0.0
1.13,0.0,0.0,0.0,0.0,-6.7091484,0.0,0.0,-6.003318,-0.0
1.14,0.0,0.0,0.0,0.0,-6.7691994,0.0,0.0,-6.005114,-0.0
1.15,0.0,0.0,0.0,0.0,-6.8292685,0.0,0.0,-6.006927,-0.0
1.16,0.0,0.0,0.0,0.0,-6.889356,0.0,0.0,-6.0087566,-0.0
1.17,0.0,0.0,0.0,0.0,-6.949462,0.0,0.0,-6.0106034,-0.0
1.18,0.0,0.0,0.0,0.0,-7.009587,0.0,0.0,-6.0124664,-0.0
1.19,0.0,0.0,0.0,0.0,-7.0697303,0.0,0.0,-6.0143466,-0.0
1.20,0.0,0.0,0.0,0.0,-7.129893,0.0,0.0,-6.0162435,-0.0
1.21,0.0,0.0,0.0,0.0,-7.1900744,0.0,0.0,-6.018157,-0.0
1.22,0.0,0.0,0.0,0.0,-7.250275,0.0,0.0,-6.0200877,-0.0
1.23,0.0,0.0,0.0,0.0,-7.3104954,0.0,0.0,-6.0220346,-0.0
1.24,0.0,0.0,0.0,0.0,-7.370735,0.0,0.0,-6.023999,-0.0
1.25,0.0,0.0,0.0,0.0,-7.430995,0.0,0.0,-6.02598,-0.0
1.26,0.0,0.0,0.0,0.0,-7.491275,0.0,0.0,-6.027978,-0.0
1.27,0.0,0.0,0.0,0.0,-7.5515747,0.0,0.0,-6.029993,-0.0
1.28,0.0,0.0,0.0,0.0,-7.611895,0.0,0.0,-6.0320244,-0.0
1.29,0.0,0.0,0.0,0.0,-7.672236,0.0,0.0,-6.0340734,-0.0
1.30,0.0,0.0,0.0,0.0,-7.7325974,0.0,0.0,-6.0361395,-0.0
1.31,0.0,0.0,0.0,0.0,-7.7929797,0.0,0.0,-6.0382223,-0.0
1.32,0.0,0.0,0.0,0.0,-7.853383,0.0,0.0,-6.040322,-0.0
1.33,0.0,0.0,0.0,0.0,-7.9138074,0.0,0.0,-6.042439,-0.0
1.34,0.0,0.0,0.0,0.0,-7.974253,0.0,0.0,-6.0445733,-0.0
1.35,0.0,0.0,0.0,0.0,-8.03472,0.0,0.0,-6.0467243,-0.0
1.36,0.0,0.0,0.0,0.0,-8.095209,0.0,0.0,-6.0488925,-0.0
1.37,0.0,0.0,0.0,0.0,-8.15572,0.0,0.0,-6.051078,-0.0
1.38,0.0,0.0,0.0,0.0,-8.216252,0.0,0.0,-6.053281,-0.0
1.39,0.0,0.0,0.0,0.0,-8.276808,0.0,0.0,-6.055501,-0.0
1.40,0.0,0.0,0.0,0.0,-8.337385,0.0,0.0,-6.057738,-0.0
1.41,0.0,0.0,0.0,0.0,-8.397985,0.0,0.0,-6.059993,-0.0
1.42,0.0,0.0,0.0,0.0,-8.458608,0.0,0.0,-6.0622644,-0.0
1.43,0.0,0.0,0.0,0.0,-8.519253,0.0,0.0,-6.0645533,-0.0
1.44,0.0,0.0,0.0,0.0,-8.579922,0.0,0.0,-6.0668597,-0.0
1.45,0.0,0.0,0.0,0.0,-8.640614,0.0,0.0,-6.0691833,-0.0
1.46,0.0,0.0,0.0,0.0,-8.701329,0.0,0.0,-6.0715246,-0.0
1.47,0.0,0.0,0.0,0.0,-8.762068,0.0,0.0,-6.073883,-0.0
1.48,0.0,0.0,0.0,0.0,-8.82283,0.0,0.0,-6.076259,-0.0
1.49,0.0,0.0,0.0,0.0,-8.883616,0.0,0.0,-6.078653,-0.0
1.50,0.0,0.0,0.0,0.0,-8.9444275,0.0,0.0,-6.0810637,-0.0
1.51,0.0,0.0,0.0,0.0,-9.005262,0.0,0.0,-6.083492,-0.0
1.52,0.0,0.0,0.0,0.0,-9.066122,0.0,0.0,-6.085938,-0.0
1.53,0.0,0.0,0.0,0.0,-9.127007,0.0,0.0,-6.0884013,-0.0
1.54,0.0,0.0,0.0,0.0,-9.187916,0.0,0.0,-6.090883,-0.0
1.55,0.0,0.0,0.0,0.0,-9.24885,0.0,0.0,-6.0933814,-0.0
1.56,0.0,0.0,0.0,0.0,-9.309809,0.0,0.0,-6.095898,-0.0
1.57,0.0,0.0,0.0,0.0,-9.370793,0.0,0.0,-6.098432,-0.0
1.58,0.0,0.0,0.0,0.0,-9.431803,0.0,0.0,-6.1009836,-0.0
1.59,0.0,0.0,0.0,0.0,-9.492838,0.0,0.0,-6.103554,-0.0
1.60,0.0,0.0,0.0,0.0,-9.5539,0.0,0.0,-6.106141,-0.0
1.61,0.0,0.0,0.0,0.0,-9.614987,0.0,0.0,-6.108746,-0.0
1.62,0.0,0.0,0.0,0.0,-9.676101,0.0,0.0,-6.111369,-0.0
1.63,0.0,0.0,0.0,0.0,-9.737241,0.0,0.0,-6.1140103,-0.0
1.64,0.0,0.0,0.0,0.0,-9.798408,0.0,0.0,-6.116669,-0.0
1.65,0.0,0.0,0.0,0.0,-9.859601,0.0,0.0,-6.119345,-0.0
1.66,0.0,0.0,0.0,0.0,-9.920821,0.0,0.0,-6.1220403,-0.0
1.67,0.0,0.0,0.0,0.0,-9.982069,0.0,0.0,-6.1247525,-0.0
1.68,0.0,0.0,0.0,0.0,-10.043344,0.0,0.0,-6.127483,-0.0
1.69,0.0,0.0,0.0,0.0,-10.104646,0.0,0.0,-6.1302314,-0.0
1.70,0.0,0.0,0.0,0.0,-10.165976,0.0,0.0,-6.1329985,-0.0
1.71,0.0,0.0,0.0,0.0,-10.227333,0.0,0.0,-6.135783,-0.0
1.72,0.0,0.0,0.0,0.0,-10.288719,0.0,0.0,-6.1385856,-0.0
1.73,0.0,0.0,0.0,0.0,-10.350133,0.0,0.0,-6.1414075,-0.0
1.74,0.0,0.0,0.0,0.0,-10.411575,0.0,0.0,-6.1442466,-0.0
1.75,0.0,0.0,0.0,0.0,-10.473046,0.0,0.0,-6.1471033,-0.0
1.76,0.0,0.0,0.0,0.0,-10.534546,0.0,0.0,-6.1499796,-0.0
1.77,0.0,0.0,0.0,0.0,-10.596075,0.0,0.0,-6.152873,-0.0
1.78,0.0,0.0,0.0,0.0,-10.657633,0.0,0.0,-6.155786,-0.0
1.79,0.0,0.0,0.0,0.0,-10.71922,0.0,0.0,-6.1587167,-0.0
1.80,0.0,0.0,0.0,0.0,-10.780837,0.0,0.0,-6.1616654,-0.0
1.81,0.0,0.0,0.0,0.0,-10.8424835,0.0,0.0,-6.164633,-0.0
1.82,0.0,0.0,0.0,0.0,-10.90416,0.0,0.0,-6.167619,-0.0
1.83,0.0,0.0,0.0,0.0,-10.965866,0.0,0.0,-6.1706233,-0.0
1.84,0.0,0.0,0.0,0.0,-11.027602,0.0,0.0,-6.1736465,-0.0
1.85,0.0,0.0,0.0,0.0,-11.089369,0.0,0.0,-6.1766877,-0.0
1.86,0.0,0.0,0.0,0.0,-11.151166,0.0,0.0,-6.1797476,-0.0
1.87,0.0,0.0,0.0,0.0,-11.212995,0.0,0.0,-6.182826,-0.0
1.88,0.0,0.0,0.0,0.0,-11.274854,0.0,0.0,-6.1859236,-0.0
1.89,0.0,0.0,0.0,0.0,-11.336744,0.0,0.0,-6.1890397,-0.0
1.90,0.0,0.0,0.0,0.0,-11.398666,0.0,0.0,-6.192175,-0.0
1.91,0.0,0.0,0.0,0.0,-11.46062,0.0,0.0,-6.195328,-0.0
1.92,0.0,0.0,0.0,0.0,-11.522605,0.0,0.0,-6.1985,-0.0
1.93,0.0,0.0,0.0,0.0,-11.584621,0.0,0.0,-6.2016916,-0.0
1.94,0.0,0.0,0.0,0.0,-11.64667,0.0,0.0,-6.2049017,-0.0
1.95,0.0,0.0,0.0,0.0,-11.708752,0.0,0.0,-6.2081304,-0.0
1.96,0.0,0.0,0.0,0.0,-11.770865,0.0,0.0,-6.2113786,-0.0
1.97,0.0,0.0,0.0,0.0,-11.833012,0.0,0.0,-6.214645,-0.0
1.98,0.0,0.0,0.0,0.0,-11.895191,0.0,0.0,-6.217931,-0.0
1.99,0.0,0.0,0.0,0.0,-11.957403,0.0,0.0,-6.2212358,-0.0
2.00,0.0,0.0,0.0,0.0,-12.019649,0.0,0.0,-6.2245593,-0.0
2.01,0.0,0.0,0.0,0.0,-12.081927,0.0,0.0,-6.227903,-0.0
2.02,0.0,0.0,0.0,0.0,-12.14424,0.0,0.0,-6.231265,-0.0
2.03,0.0,0.0,0.0,0.0,-12.206587,0.0,0.0,-6.234647,-0.0
2.04,0.0,0.0,0.0,0.0,-12.268968,0.0,0.0,-6.238047,-0.0
2.05,0.0,0.0,0.0,0.0,-12.331383,0.0,0.0,-6.2414675,-0.0
2.06,0.0,0.0,0.0,0.0,-12.393832,0.0,0.0,-6.244907,-0.0
2.07,0.0,0.0,0.0,0.0,-12.456316,0.0,0.0,-6.2483654,-0.0
2.08,0.0,0.0,0.0,0.0,-12.518834,0.0,0.0,-6.2518435,-0.0
2.09,0.0,0.0,0.0,0.0,-12.5813875,0.0,0.0,-6.2553415,-0.0
2.10,0.0,0.0,0.0,0.0,-12.643976,0.0,0.0,-6.258858,-0.0
2.11,0.0,0.0,0.0,0.0,-12.7066,0.0,0.0,-6.2623944,-0.0
2.12,0.0,0.0,0.0,0.0,-12.769259,0.0,0.0,-6.265951,-0.0
2.13,0.0,0.0,0.0,0.0,-12.831955,0.0,0.0,-6.2695265,-0.0
2.14,0.0,0.0,0.0,0.0,-12.894686,0.0,0.0,-6.273122,-0.0
2.15,0.0,0.0,0.0,0.0,-12.957453,0.0,0.0,-6.276737,-0.0
2.16,0.0,0.0,0.0,0.0,-13.020256,0.0,0.0,-6.280372,-0.0
2.17,0.0,0.0,0.0,0.0,-13.0830965,0.0,0.0,-6.2840266,-0.0
2.18,0.0,0.0,0.0,0.0,-13.145973,0.0,0.0,-6.287701,-0.0
2.19,0.0,0.0,0.0,0.0,-13.208887,0.0,0.0,-6.291395,-0.0
2.20,0.0,0.0,0.0,0.0,-13.271838,0.0,0.0,-6.295109,-0.0
2.21,0.0,0.0,0.0,0.0,-13.334826,0.0,0.0,-6.2988434,-0.0
2.22,0.0,0.0,0.0,0.0,-13.397853,0.0,0.0,-6.3025975,-0.0
2.23,0.0,0.0,0.0,0.0,-13.4609165,0.0,0.0,-6.306371,-0.0
2.24,0.0,0.0,0.0,0.0,-13.524018,0.0,0.0,-6.3101654,-0.0
2.25,0.0,0.0,0.0,0.0,-13.587158,0.0,0.0,-6.3139796,-0.0
2.26,0.0,0.0,0.0,0.0,-13.650336,0.0,0.0,-6.317814,-0.0
2.27,0.0,0.0,0.0,0.0,-13.713552,0.0,0.0,-6.3216686,-0.0
2.28,0.0,0.0,0.0,0.0,-13.776808,0.0,0.0,-6.3255434,-0.0
2.29,0.0,0.0,0.0,0.0,-13.840102,0.0,0.0,-6.3294387,-0.0
2.30,0.0,0.0,0.0,0.0,-13.903436,0.0,0.0,-6.333354,-0.0
2.31,0.0,0.0,0.0,0.0,-13.966808,0.0,0.0,-6.33729,-0.0
2.32,0.0,0.0,0.0,0.0,-14.030221,0.0,0.0,-6.341246,-0.0
2.33,0.0,0.0,0.0,0.0,-14.093673,0.0,0.0,-6.345223,-0.0
2.34,0.0,0.0,0.0,0.0,-14.157165,0.0,0.0,-6.3492203,-0.0
2.35,0.0,0.0,0.0,0.0,-14.220697,0.0,0.0,-6.353238,-0.0
2.36,0.0,0.0,0.0,0.0,-14.28427,0.0,0.0,-6.357277,-0.0
2.37,0.0,0.0,0.0,0.0,-14.347883,0.0,0.0,-6.361336,-0.0
2.38,0.0,0.0,0.0,0.0,-14.411537,0.0,0.0,-6.365416,-0.0
2.39,0.0,0.0,0.0,0.0,-14.475232,0.0,0.0,-6.369517,-0.0
2.40,0.0,0.0,0.0,0.0,-14.538968,0.0,0.0,-6.3736377,-0.0
2.41,0.0,0.0,0.0,0.0,-14.602746,0.0,0.0,-6.3777804,-0.0
2.42,0.0,0.0,0.0,0.0,-14.666566,0.0,0.0,-6.3819437,-0.0
2.43,0.0,0.0,0.0,0.0,-14.730427,0.0,0.0,-6.3861284,-0.0
2.44,0.0,0.0,0.0,0.0,-14.794331,0.0,0.0,-6.390333,-0.0
2.45,0.0,0.0,0.0,0.0,-14.858276,0.0,0.0,-6.3945594,-0.0
2.46,0.0,0.0,0.0,0.0,-14.922264,0.0,0.0,-6.3988066,-0.0
2.47,0.0,0.0,0.0,0.0,-14.986295,0.0,0.0,-6.403075,-0.0
2.48,0.0,0.0,0.0,0.0,-15.050368,0.0,0.0,-6.4073653,-0.0
2.49,0.0,0.0,0.0,0.0,-15.114485,0.0,0.0,-6.411676,-0.0
2.50,0.0,0.0,0.0,0.0,-15.178645,0.0,0.0,-6.4160085,-0.0
2.51,0.0,0.0,0.0,0.0,-15.242848,0.0,0.0,-6.4203625,-0.0
2.52,0.0,0.0,0.0,0.0,-15.307096,0.0,0.0,-6.424737,-0.0
2.53,0.0,0.0,0.0,0.0,-15.371387,0.0,0.0,-6.4291334,-0.0
2.54,0.0,0.0,0.0,0.0,-15.435722,0.0,0.0,-6.433552,-0.0
2.55,0.0,0.0,0.0,0.0,-15.500102,0.0,0.0,-6.4379916,-0.0
2.56,0.0,0.0,0.0,0.0,-15.564527,0.0,0.0,-6.442453,-0.0
2.57,0.0,0.0,0.0,0.0,-15.628996,0.0,0.0,-6.446936,-0.0
2.58,0.0,0.0,0.0,0.0,-15.69351,0.0,0.0,-6.451441,-0.0
2.59,0.0,0.0,0.0,0.0,-15.75807,0.0,0.0,-6.4559674,-0.0
2.60,0.0,0.0,0.0,0.0,-15.822675,0.0,0.0,-6.4605155,-0.0
2.61,0.0,0.0,0.0,0.0,-15.887325,0.0,0.0,-6.4650855,-0.0
2.62,0.0,0.0,0.0,0.0,-15.952022,0.0,0.0,-6.4696774,-0.0
2.63,0.0,0.0,0.0,0.0,-16.016764,0.0,0.0,-6.4742923,-0.0
2.64,0.0,0.0,0.0,0.0,-16.081553,0.0,0.0,-6.478928,-0.0
2.65,0.0,0.0,0.0,0.0,-16.146389,0.0,0.0,-6.4835863,-0.0
2.66,0.0,0.0,0.0,0.0,-16.211271,0.0,0.0,-6.488267,-0.0
2.67,0.0,0.0,0.0,0.0,-16.276201,0.0,0.0,-6.49297,-0.0
2.68,0.0,0.0,0.0,0.0,-16.341179,0.0,0.0,-6.4976945,-0.0
2.69,0.0,0.0,0.0,0.0,-16.406204,0.0,0.0,-6.502442,-0.0
2.70,0.0,0.0,0.0,0.0,-16.471277,0.0,0.0,-6.507212,-0.0
2.71,0.0,0.0,0.0,0.0,-16.536398,0.0,0.0,-6.5120044,-0.0
2.72,0.0,0.0,0.0,0.0,-16.601566,0.0,0.0,-6.516819,-0.0
2.73,0.0,0.0,0.0,0.0,-16.666782,0.0,0.0,-6.5216565,-0.0
2.74,0.0,0.0,0.0,0.0,-16.732048,0.0,0.0,-6.5265164,-0.0
2.75,0.0,0.0,0.0,0.0,-16.797361,0.0,0.0,-6.5313993,-0.0
2.76,0.0,0.0,0.0,0.0,-16.862724,0.0,0.0,-6.536305,-0.0
2.77,0.0,0.0,0.0,0.0,-16.928137,0.0,0.0,-6.541233,-0.0
2.78,0.0,0.0,0.0,0.0,-16.993599,0.0,0.0,-6.546184,-0.0
2.79,0.0,0.0,0.0,0.0,-17.05911,0.0,0.0,-6.5511584,-0.0
2.80,0.0,0.0,0.0,0.0,-17.124672,0.0,0.0,-6.5561557,-0.0
2.81,0.0,0.0,0.0,0.0,-17.190283,0.0,0.0,-6.5611753,-0.0
2.82,0.0,0.0,0.0,0.0,-17.255945,0.0,0.0,-6.566219,-0.0
2.83,0.0,0.0,0.0,0.0,-17.321657,0.0,0.0,-6.5712857,-0.0
2.84,0.0,0.0,0.0,0.0,-17.38742,0.0,0.0,-6.5763745,-0.0
2.85,0.0,0.0,0.0,0.0,-17.453236,0.0,0.0,-6.5814877,-0.0
2.86,0.0,0.0,0.0,0.0,-17.519102,0.0,0.0,-6.586624,-0.0
2.87,0.0,0.0,0.0,0.0,-17.58502,0.0,0.0,-6.591784,-0.0
2.88,0.0,0.0,0.0,0.0,-17.65099,0.0,0.0,-6.596967,-0.0
2.89,0.0,0.0,0.0,0.0,-17.71701,0.0,0.0,-6.6021743,-0.0
2.90,0.0,0.0,0.0,0.0,-17.783085,0.0,0.0,-6.6074047,-0.0
2.91,0.0,0.0,0.0,0.0,-17.84921,0.0,0.0,-6.6126595,-0.0
2.92,0.0,0.0,0.0,0.0,-17.91539,0.0,0.0,-6.617937,-0.0
2.93,0.0,0.0,0.0,0.0,-17.981623,0.0,0.0,-6.623239,-0.0
2.94,0.0,0.0,0.0,0.0,-18.047909,0.0,0.0,-6.6285644,-0.0
2.95,0.0,0.0,0.0,0.0,-18.114248,0.0,0.0,-6.633914,-0.0
2.96,0.0,0.0,0.0,0.0,-18.180641,0.0,0.0,-6.639288,-0.0
2.97,0.0,0.0,0.0,0.0,-18.247087,0.0,0.0,-6.6446857,-0.0
2.98,0.0,0.0,0.0,0.0,-18.31359,0.0,0.0,-6.6501074,-0.0
2.99,0.0,0.0,0.0,0.0,-18.380144,0.0,0.0,-6.6555543,-0.0
3.00,0.0,0.0,0.0,0.0,-18.446754,0.0,0.0,-6.661024,-0.0
3.01,0.0,0.0,0.0,0.0,-18.51342,0.0,0.0,-6.6665187,-0.0
3.02,0.0,0.0,0.0,0.0,-18.580141,0.0,0.0,-6.6720386,-0.0
3.03,0.0,0.0,0.0,0.0,-18.646917,0.0,0.0,-6.6775823,-0.0
3.04,0.0,0.0,0.0,0.0,-18.713749,0.0,0.0,-6.683151,-0.0
3.05,0.0,0.0,0.0,0.0,-18.780636,0.0,0.0,-6.6887436,-0.0
3.06,0.0,0.0,0.0,0.0,-18.84758,0.0,0.0,-6.694361,-0.0
3.07,0.0,0.0,0.0,0.0,-18.91458,0.0,0.0,-6.7000036,-0.0
3.08,0.0,0.0,0.0,0.0,-18.981636,0.0,0.0,-6.7056713,-0.0
3.09,0.0,0.0,0.0,0.0,-19.04875,0.0,0.0,-6.7113633,-0.0
3.10,0.0,0.0,0.0,0.0,-19.115921,0.0,0.0,-6.7170806,-0.0
3.11,0.0,0.0,0.0,0.0,-19.18315,0.0,0.0,-6.722823,-0.0
3.12,0.0,0.0,0.0,0.0,-19.250435,0.0,0.0,-6.7285905,-0.0
3.13,0.0,0.0,0.0,0.0,-19.31778,0.0,0.0,-6.7343836,-0.0
3.14,0.0,0.0,0.0,0.0,-19.385181,0.0,0.0,-6.740201,-0.0
3.15,0.0,0.0,0.0,0.0,-19.452642,0.0,0.0,-6.746045,-0.0
3.16,0.0,0.0,0.0,0.0,-19.52016,0.0,0.0,-6.7519135,-0.0
3.17,0.0,0.0,0.0,0.0,-19.587738,0.0,0.0,-6.7578077,-0.0
3.18,0.0,0.0,0.0,0.0,-19.655375,0.0,0.0,-6.7637277,-0.0
3.19,0.0,0.0,0.0,0.0,-19.723072,0.0,0.0,-6.769674,-0.0
3.20,0.0,0.0,0.0,0.0,-19.790829,0.0,0.0,-6.775645,-0.0
3.21,0.0,0.0,0.0,0.0,-19.858644,0.0,0.0,-6.7816424,-0.0
3.22,0.0,0.0,0.0,0.0,-19.926521,0.0,0.0,-6.7876654,-0.0
3.23,0.0,0.0,0.0,0.0,-19.99446,0.0,0.0,-6.7937145,-0.0
3.24,0.0,0.0,0.0,0.0,-20.062456,0.0,0.0,-6.7997894,-0.0
3.25,0.0,0.0,0.0,0.0,-20.130514,0.0,0.0,-6.8058906,-0.0
3.26,0.0,0.0,0.0,0.0,-20.198635,0.0,0.0,-6.812018,-0.0
3.27,0.0,0.0,0.0,0.0,-20.266817,0.0,0.0,-6.818172,-0.0
3.28,0.0,0.0,0.0,0.0,-20.33506,0.0,0.0,-6.824352,-0.0
3.29,0.0,0.0,0.0,0.0,-20.403366,0.0,0.0,-6.830559,-0.0
3.30,0.0,0.0,0.0,0.0,-20.471733,0.0,0.0,-6.836792,-0.0
3.31,0.0,0.0,0.0,0.0,-20.540163,0.0,0.0,-6.8430514,-0.0
3.32,0.0,0.0,0.0,0.0,-20.608656,0.0,0.0,-6.849338,-0.0
3.33,0.0,0.0,0.0,0.0,-20.677212,0.0,0.0,-6.8556514,-0.0
3.34,0.0,0.0,0.0,0.0,-20.745832,0.0,0.0,-6.8619914,-0.0
3.35,0.0,0.0,0.0,0.0,-20.814516,0.0,0.0,-6.8683586,-0.0
3.36,0.0,0.0,0.0,0.0,-20.883263,0.0,0.0,-6.874752,-0.0
3.37,0.0,0.0,0.0,0.0,-20.952074,0.0,0.0,-6.8811736,-0.0
3.38,0.0,0.0,0.0,0.0,-21.02095,0.0,0.0,-6.887622,-0.0
3.39,0.0,0.0,0.0,0.0,-21.089891,0.0,0.0,-6.8940973,-0.0
3.40,0.0,0.0,0.0,0.0,-21.158897,0.0,0.0,-6.900601,-0.0
3.41,0.0,0.0,0.0,0.0,-21.227968,0.0,0.0,-6.9071317,-0.0
3.42,0.0,0.0,0.0,0.0,-21.297106,0.0,0.0,-6.913689,-0.0
3.43,0.0,0.0,0.0,0.0,-21.366308,0.0,0.0,-6.920275,-0.0
3.44,0.0,0.0,0.0,0.0,-21.435577,0.0,0.0,-6.926888,-0.0
3.45,0.0,0.0,0.0,0.0,-21.504913,0.0,0.0,-6.93353,-0.0
3.46,0.0,0.0,0.0,0.0,-21.574316,0.0,0.0,-6.940199,-0.0
3.47,0.0,0.0,0.0,0.0,-21.643785,0.0,0.0,-6.946896,-0.0
3.48,0.0,0.0,0.0,0.0,-21.713322,0.0,0.0,-6.953621,-0.0
3.49,0.0,0.0,0.0,0.0,-21.782925,0.0,0.0,-6.9603744,-0.0
3.50,0.0,0.0,0.0,0.0,-21.851538,0.0,0.0,-6.8612604,-0.0
3.51,0.0,0.0,0.0,0.0,-21.906279,0.0,0.0,-5.4741635,-0.0
3.52,0.0,0.0,0.0,0.0,-21.94865,0.0,0.0,-4.23718,-0.0
3.53,0.0,0.0,0.0,0.0,-21.980812,0.0,0.0,-3.2161481,-0.0
3.54,0.0,0.0,0.0,0.0,-22.004055,0.0,0.0,-2.3242543,-0.0
3.55,0.0,0.0,0.0,0.0,-22.019455,0.0,0.0,-1.5399971,-0.0
3.56,0.0,0.0,0.0,0.0,-22.028528,0.0,0.0,-0.9072733,-0.0
3.57,0.0,0.0,0.0,0.0,-22.031702,0.0,0.0,-0.3173045,-0.0
3.58,0.0,0.0,0.0,0.0,-22.030058,0.0,0.0,0.16434184,-0.0
3.59,0.0,0.0,0.0,0.0,-22.024466,0.0,0.0,0.5591837,-0.0
3.60,0.0,0.0,0.0,0.0,-22.01514,0.0,0.0,0.9325295,-0.0
3.61,0.0,0.0,0.0,0.0,-22.002733,0.0,0.0,1.2406741,-0.0
3.62,0.0,0.0,0.0,0.0,-21.98768,0.0,0.0,1.5052861,-0.0
3.63,0.0,0.0,0.0,0.0,-21.970636,0.0,0.0,1.7044361,-0.0
3.64,0.0,0.0,0.0,0.0,-21.951384,0.0,0.0,1.9252741,-0.0
3.65,0.0,0.0,0.0,0.0,-21.930578,0.0,0.0,2.0805192,-0.0
3.66,0.0,0.0,0.0,0.0,-21.908222,0.0,0.0,2.2355444,-0.0
3.67,0.0,0.0,0.0,0.0,-21.884756,0.0,0.0,2.3466442,-0.0
3.68,0.0,0.0,0.0,0.0,-21.8604,0.0,0.0,2.435594,-0.0
3.69,0.0,0.0,0.0,0.0,-21.835157,0.0,0.0,2.5241494,-0.0
3.70,0.0,0.0,0.0,0.0,-21.809034,0.0,0.0,2.6122873,-0.0
3.71,0.0,0.0,0.0,0.0,-21.782251,0.0,0.0,2.6782088,-0.0
3.72,0.0,0.0,0.0,0.0,-21.755033,0.0,0.0,2.7218263,-0.0
3.73,0.0,0.0,0.0,0.0,-21.727165,0.0,0.0,2.7867584,-0.0
3.74,0.0,0.0,0.0,0.0,-21.69909,0.0,0.0,2.807609,-0.0
3.75,0.0,0.0,0.0,0.0,-21.670591,0.0,0.0,2.8497078,-0.0
3.76,0.0,0.0,0.0,0.0,-21.641897,0.0,0.0,2.869479,-0.0
3.77,0.0,0.0,0.0,0.0,-21.61301,0.0,0.0,2.888677,-0.0
3.78,0.0,0.0,0.0,0.0,-21.583937,0.0,0.0,2.9073231,-0.0
3.79,0.0,0.0,0.0,0.0,-21.554682,0.0,0.0,2.9254172,-0.0
3.80,0.0,0.0,0.0,0.0,-21.525253,0.0,0.0,2.942914,-0.0
3.81,0.0,0.0,0.0,0.0,-21.495655,0.0,0.0,2.9598792,-0.0
3.82,0.0,0.0,0.0,0.0,-21.465893,0.0,0.0,2.9762683,-0.0
3.83,0.0,0.0,0.0,0.0,-21.43619,0.0,0.0,2.9702601,-0.0
3.84,0.0,0.0,0.0,0.0,-21.406553,0.0,0.0,2.9636328,-0.0
3.85,0.0,0.0,0.0,0.0,-21.376772,0.0,0.0,2.9782262,-0.0
3.86,0.0,0.0,0.0,0.0,-21.34685,0.0,0.0,2.9922411,-0.0
3.87,0.0,0.0,0.0,0.0,-21.31701,0.0,0.0,2.9838784,-0.0
3.88,0.0,0.0,0.0,0.0,-21.287262,0.0,0.0,2.9748716,-0.0
3.89,0.0,0.0,0.0,0.0,-21.257608,0.0,0.0,2.965264,-0.0
3.90,0.0,0.0,0.0,0.0,-21.227621,0.0,0.0,2.9986947,-0.0
3.91,0.0,0.0,0.0,0.0,-21.197742,0.0,0.0,2.9879465,-0.0
3.92,0.0,0.0,0.0,0.0,-21.167976,0.0,0.0,2.9765518,-0.0
3.93,0.0,0.0,0.0,0.0,-21.138113,0.0,0.0,2.9864173,-0.0
3.94,0.0,0.0,0.0,0.0,-21.108376,0.0,0.0,2.973836,-0.0
3.95,0.0,0.0,0.0,0.0,-21.07877,0.0,0.0,2.96065,-0.0
3.96,0.0,0.0,0.0,0.0,-21.048864,0.0,0.0,2.9904993,-0.0
3.97,0.0,0.0,0.0,0.0,-21.019321,0.0,0.0,2.9543242,-0.0
3.98,0.0,0.0,0.0,0.0,-20.98971,0.0,0.0,2.961141,-0.0
3.99,0.0,0.0,0.0,0.0,-20.960035,0.0,0.0,2.9673934,-0.0
4.00,0.0,0.0,0.0,0.0,-20.930523,0.0,0.0,2.9512174,-0.0
4.01,0.0,0.0,0.0,0.0,-20.90096,0.0,0.0,2.9562535,-0.0
4.02,0.0,0.0,0.0,0.0,-20.871353,0.0,0.0,2.9607239,-0.0
4.03,0.0,0.0,0.0,0.0,-20.841925,0.0,0.0,2.9428077,-0.0
4.04,0.0,0.0,0.0,0.0,-20.812464,0.0,0.0,2.9460588,-0.0
4.05,0.0,0.0,0.0,0.0,-20.782976,0.0,0.0,2.9487424,-0.0
4.06,0.0,0.0,0.0,0.0,-20.753687,0.0,0.0,2.9290159,-0.0
4.07,0.0,0.0,0.0,0.0,-20.724382,0.0,0.0,2.9304986,-0.0
4.08,0.0,0.0,0.0,0.0,-20.695068,0.0,0.0,2.9313684,-0.0
4.09,0.0,0.0,0.0,0.0,-20.66575,0.0,0.0,2.9317122,-0.0
4.10,0.0,0.0,0.0,0.0,-20.636436,0.0,0.0,2.931442,-0.0
4.11,0.0,0.0,0.0,0.0,-20.60735,0.0,0.0,2.9087589,-0.0
4.12,0.0,0.0,0.0,0.0,-20.578276,0.0,0.0,2.9072826,-0.0
4.13,0.0,0.0,0.0,0.0,-20.549223,0.0,0.0,2.9052129,-0.0
4.14,0.0,0.0,0.0,0.0,-20.51998,0.0,0.0,2.9244123,-0.0
4.15,0.0,0.0,0.0,0.0,-20.490986,0.0,0.0,2.8994188,-0.0
4.16,0.0,0.0,0.0,0.0,-20.46203,0.0,0.0,2.8955865,-0.0
4.17,0.0,0.0,0.0,0.0,-20.433119,0.0,0.0,2.891202,-0.0
4.18,0.0,0.0,0.0,0.0,-20.404257,0.0,0.0,2.8862429,-0.0
4.19,0.0,0.0,0.0,0.0,-20.37545,0.0,0.0,2.8806648,-0.0
4.20,0.0,0.0,0.0,0.0,-20.346704,0.0,0.0,2.8745334,-0.0
4.21,0.0,0.0,0.0,0.0,-20.317808,0.0,0.0,2.8896244,-0.0
4.22,0.0,0.0,0.0,0.0,-20.289204,0.0,0.0,2.8605182,-0.0
4.23,0.0,0.0,0.0,0.0,-20.26046,0.0,0.0,2.874411,-0.0
4.24,0.0,0.0,0.0,0.0,-20.2318,0.0,0.0,2.8659923,-0.0
4.25,0.0,0.0,0.0,0.0,-20.20323,0.0,0.0,2.8569515,-0.0
4.26,0.0,0.0,0.0,0.0,-20.174538,0.0,0.0,2.8691523,-0.0
4.27,0.0,0.0,0.0,0.0,-20.146166,0.0,0.0,2.8371534,-0.0
4.28,0.0,0.0,0.0,0.0,-20.117683,0.0,0.0,2.8481739,-0.0
4.29,0.0,0.0,0.0,0.0,-20.089315,0.0,0.0,2.8368573,-0.0
4.30,0.0,0.0,0.0,0.0,-20.060848,0.0,0.0,2.8467362,-0.0
4.31,0.0,0.0,0.0,0.0,-20.032505,0.0,0.0,2.8342557,-0.0
4.32,0.0,0.0,0.0,0.0,-20.004074,0.0,0.0,2.8430355,-0.0
4.33,0.0,0.0,0.0,0.0,-19.975998,0.0,0.0,2.807591,-0.0
4.34,0.0,0.0,0.0,0.0,-19.947628,0.0,0.0,2.8370044,-0.0
4.35,0.0,0.0,0.0,0.0,-19.919405,0.0,0.0,2.8222554,-0.0
4.36,0.0,0.0,0.0,0.0,-19.891336,0.0,0.0,2.8069232,-0.0
4.37,0.0,0.0,0.0,0.0,-19.863209,0.0,0.0,2.8128047,-0.0
4.38,0.0,0.0,0.0,0.0,-19.835028,0.0,0.0,2.8181434,-0.0
4.39,0.0,0.0,0.0,0.0,-19.807016,0.0,0.0,2.8011398,-0.0
4.40,0.0,0.0,0.0,0.0,-19.778963,0.0,0.0,2.805349,-0.0
4.41,0.0,0.0,0.0,0.0,-19.751091,0.0,0.0,2.787172,-0.0
4.42,0.0,0.0,0.0,0.0,-19.723188,0.0,0.0,2.7902505,-0.0
4.43,0.0,0.0,0.0,0.0,-19.695261,0.0,0.0,2.792761,-0.0
4.44,0.0,0.0,0.0,0.0,-19.667532,0.0,0.0,2.7729056,-0.0
4.45,0.0,0.0,0.0,0.0,-19.63979,0.0,0.0,2.7743044,-0.0
4.46,0.0,0.0,0.0,0.0,-19.61182,0.0,0.0,2.7969322,-0.0
4.47,0.0,0.0,0.0,0.0,-19.584284,0.0,0.0,2.7536151,-0.0
4.48,0.0,0.0,0.0,0.0,-19.556532,0.0,0.0,2.7751062,-0.0
4.49,0.0,0.0,0.0,0.0,-19.52879,0.0,0.0,2.7742915,-0.0
4.50,0.0,0.0,0.0,0.0,-19.501278,0.0,0.0,2.7510855,-0.0
4.51,0.0,0.0,0.0,0.0,-19.473787,0.0,0.0,2.7491093,-0.0
4.52,0.0,0.0,0.0,0.0,-19.446321,0.0,0.0,2.746583,-0.0
4.53,0.0,0.0,0.0,0.0,-19.418669,0.0,0.0,2.765348,-0.0
4.54,0.0,0.0,0.0,0.0,-19.39127,0.0,0.0,2.739919,-0.0
4.55,0.0,0.0,0.0,0.0,-19.363913,0.0,0.0,2.7357612,-0.0
4.56,0.0,0.0,0.0,0.0,-19.336384,0.0,0.0,2.7528284,-0.0
4.57,0.0,0.0,0.0,0.0,-19.309126,0.0,0.0,2.7257652,-0.0
4.58,0.0,0.0,0.0,0.0,-19.281927,0.0,0.0,2.719907,-0.0
4.59,0.0,0.0,0.0,0.0,-19.254574,0.0,0.0,2.735337,-0.0
4.60,0.0,0.0,0.0,0.0,-19.22729,0.0,0.0,2.728434,-0.0
4.61,0.0,0.0,0.0,0.0,-19.200298,0.0,0.0,2.6991565,-0.0
4.62,0.0,0.0,0.0,0.0,-19.17317,0.0,0.0,2.7129023,-0.0
4.63,0.0,0.0,0.0,0.0,-19.146126,0.0,0.0,2.704335,-0.0
4.64,0.0,0.0,0.0,0.0,-19.118956,0.0,0.0,2.7170322,-0.0
4.65,0.0,0.0,0.0,0.0,-19.091883,0.0,0.0,2.7073722,-0.0
4.66,0.0,0.0,0.0,0.0,-19.06491,0.0,0.0,2.697177,-0.0
4.67,0.0,0.0,0.0,0.0,-19.038046,0.0,0.0,2.6864252,-0.0
4.68,0.0,0.0,0.0,0.0,-19.011076,0.0,0.0,2.6969361,-0.0
4.69,0.0,0.0,0.0,0.0,-18.984224,0.0,0.0,2.6851096,-0.0
4.70,0.0,0.0,0.0,0.0,-18.95728,0.0,0.0,2.6945446,-0.0
4.71,0.0,0.0,0.0,0.0,-18.930681,0.0,0.0,2.6598213,-0.0
4.72,0.0,0.0,0.0,0.0,-18.903782,0.0,0.0,2.6899805,-0.0
4.73,0.0,0.0,0.0,0.0,-18.877241,0.0,0.0,2.6541567,-0.0
4.74,0.0,0.0,0.0,0.0,-18.850409,0.0,0.0,2.6832364,-0.0
4.75,0.0,0.0,0.0,0.0,-18.823727,0.0,0.0,2.6681743,-0.0
4.76,0.0,0.0,0.0,0.0,-18.797201,0.0,0.0,2.652595,-0.0
4.77,0.0,0.0,0.0,0.0,-18.770618,0.0,0.0,2.658231,-0.0
4.78,0.0,0.0,0.0,0.0,-18.744204,0.0,0.0,2.6415472,-0.0
4.79,0.0,0.0,0.0,0.0,-18.717524,0.0,0.0,2.6679628,-0.0
4.80,0.0,0.0,0.0,0.0,-18.691021,0.0,0.0,2.6502566,-0.0
4.81,0.0,0.0,0.0,0.0,-18.664701,0.0,0.0,2.6319652,-0.0
4.82,0.0,0.0,0.0,0.0,-18.638351,0.0,0.0,2.6349304,-0.0
4.83,0.0,0.0,0.0,0.0,-18.611977,0.0,0.0,2.6373935,-0.0
4.84,0.0,0.0,0.0,0.0,-18.585583,0.0,0.0,2.6393547,-0.0
4.85,0.0,0.0,0.0,0.0,-18.559393,0.0,0.0,2.618949,-0.0
4.86,0.0,0.0,0.0,0.0,-18.533413,0.0,0.0,2.5979784,-0.0
4.87,0.0,0.0,0.0,0.0,-18.507212,0.0,0.0,2.620104,-0.0
4.88,0.0,0.0,0.0,0.0,-18.480795,0.0,0.0,2.6417658,-0.0
4.89,0.0,0.0,0.0,0.0,-18.45482,0.0,0.0,2.5974588,-0.0
4.90,0.0,0.0,0.0,0.0,-18.42864,0.0,0.0,2.6180272,-0.0
4.91,0.0,0.0,0.0,0.0,-18.402697,0.0,0.0,2.5944684,-0.0
4.92,0.0,0.0,0.0,0.0,-18.376556,0.0,0.0,2.613982,-0.0
4.93,0.0,0.0,0.0,0.0,-18.350662,0.0,0.0,2.5893888,-0.0
4.94,0.0,0.0,0.0,0.0,-18.324583,0.0,0.0,2.6078682,-0.0
4.95,0.0,0.0,0.0,0.0,-18.298979,0.0,0.0,2.5603976,-0.0
4.96,0.0,0.0,0.0,0.0,-18.272984,0.0,0.0,2.5995986,-0.0
4.97,0.0,0.0,0.0,0.0,-18.247255,0.0,0.0,2.5729113,-0.0
4.98,0.0,0.0,0.0,0.0,-18.221363,0.0,0.0,2.5893154,-0.0
4.99,0.0,0.0,0.0,0.0,-18.195747,0.0,0.0,2.5615668,-0.0
5.00,0.0,0.0,0.0,0.0,-18.16976,0.0,0.0,2.5987515,-0.0
5.01,0.0,0.0,0.0,0.0,-18.144278,0.0,0.0,2.548182,-0.0
5.02,0.0,0.0,0.0,0.0,-18.118652,0.0,0.0,2.5624838,-0.0
5.03,0.0,0.0,0.0,0.0,-18.093107,0.0,0.0,2.5544727,-0.0
5.04,0.0,0.0,0.0,0.0,-18.067429,0.0,0.0,2.567771,-0.0
5.05,0.0,0.0,0.0,0.0,-18.042059,0.0,0.0,2.5369136,-0.0
5.06,0.0,0.0,0.0,0.0,-18.016567,0.0,0.0,2.5491457,-0.0
5.07,0.0,0.0,0.0,0.0,-17.990957,0.0,0.0,2.5609264,-0.0
5.08,0.0,0.0,0.0,0.0,-17.965672,0.0,0.0,2.528551,-0.0
5.09,0.0,0.0,0.0,0.0,-17.940279,0.0,0.0,2.5392413,-0.0
5.10,0.0,0.0,0.0,0.0,-17.914783,0.0,0.0,2.54948,-0.0
5.11,0.0,0.0,0.0,0.0,-17.889627,0.0,0.0,2.5155604,-0.0
5.12,0.0,0.0,0.0,0.0,-17.86438,0.0,0.0,2.5247278,-0.0
5.13,0.0,0.0,0.0,0.0,-17.839046,0.0,0.0,2.53342,-0.0
5.14,0.0,0.0,0.0,0.0,-17.814066,0.0,0.0,2.4979749,-0.0
5.15,0.0,0.0,0.0,0.0,-17.788792,0.0,0.0,2.5274358,-0.0
5.16,0.0,0.0,0.0,0.0,-17.763664,0.0,0.0,2.5127976,-0.0
5.17,0.0,0.0,0.0,0.0,-17.738688,0.0,0.0,2.4976435,-0.0
5.18,0.0,0.0,0.0,0.0,-17.713432,0.0,0.0,2.5255914,-0.0
5.19,0.0,0.0,0.0,0.0,-17.688557,0.0,0.0,2.487619,-0.0
5.20,0.0,0.0,0.0,0.0,-17.66363,0.0,0.0,2.4927526,-0.0
5.21,0.0,0.0,0.0,0.0,-17.638657,0.0,0.0,2.4973855,-0.0
5.22,0.0,0.0,0.0,0.0,-17.613642,0.0,0.0,2.5015402,-0.0
5.23,0.0,0.0,0.0,0.0,-17.58859,0.0,0.0,2.5051942,-0.0
5.24,0.0,0.0,0.0,0.0,-17.563944,0.0,0.0,2.464728,-0.0
5.25,0.0,0.0,0.0,0.0,-17.539053,0.0,0.0,2.489143,-0.0
5.26,0.0,0.0,0.0,0.0,-17.51425,0.0,0.0,2.4803755,-0.0
5.27,0.0,0.0,0.0,0.0,-17.489538,0.0,0.0,2.471097,-0.0
5.28,0.0,0.0,0.0,0.0,-17.464815,0.0,0.0,2.4722497,-0.0
5.29,0.0,0.0,0.0,0.0,-17.440195,0.0,0.0,2.4619784,-0.0
5.30,0.0,0.0,0.0,0.0,-17.415573,0.0,0.0,2.4621158,-0.0
5.31,0.0,0.0,0.0,0.0,-17.390955,0.0,0.0,2.4617496,-0.0
5.32,0.0,0.0,0.0,0.0,-17.366346,0.0,0.0,2.4609225,-0.0
5.33,0.0,0.0,0.0,0.0,-17.34186,0.0,0.0,2.4486694,-0.0
5.34,0.0,0.0,0.0,0.0,-17.317392,0.0,0.0,2.4468238,-0.0
5.35,0.0,0.0,0.0,0.0,-17.292948,0.0,0.0,2.4444945,-0.0
5.36,0.0,0.0,0.0,0.0,-17.268532,0.0,0.0,2.4416811,-0.0
5.37,0.0,0.0,0.0,0.0,-17.244148,0.0,0.0,2.4383616,-0.0
5.38,0.0,0.0,0.0,0.0,-17.219803,0.0,0.0,2.4345574,-0.0
5.39,0.0,0.0,0.0,0.0,-17.195501,0.0,0.0,2.430246,-0.0
5.40,0.0,0.0,0.0,0.0,-17.171247,0.0,0.0,2.425471,-0.0
5.41,0.0,0.0,0.0,0.0,-17.146936,0.0,0.0,2.4311094,-0.0
5.42,0.0,0.0,0.0,0.0,-17.122683,0.0,0.0,2.4253488,-0.0
5.43,0.0,0.0,0.0,0.0,-17.098492,0.0,0.0,2.4191015,-0.0
5.44,0.0,0.0,0.0,0.0,-17.074368,0.0,0.0,2.4123673,-0.0
5.45,0.0,0.0,0.0,0.0,-17.050207,0.0,0.0,2.416045,-0.0
5.46,0.0,0.0,0.0,0.0,-17.026123,0.0,0.0,2.4083443,-0.0
5.47,0.0,0.0,0.0,0.0,-17.002121,0.0,0.0,2.4001555,-0.0
5.48,0.0,0.0,0.0,0.0,-16.978098,0.0,0.0,2.4023774,-0.0
5.49,0.0,0.0,0.0,0.0,-16.954056,0.0,0.0,2.4041405,-0.0
5.50,0.0,0.0,0.0,0.0,-16.93011,0.0,0.0,2.394502,-0.0
5.51,0.0,0.0,0.0,0.0,-16.906158,0.0,0.0,2.3952947,-0.0
5.52,0.0,0.0,0.0,0.0,-16.88231,0.0,0.0,2.3846853,-0.0
5.53,0.0,0.0,0.0,0.0,-16.858465,0.0,0.0,2.3845067,-0.0
5.54,0.0,0.0,0.0,0.0,-16.834627,0.0,0.0,2.3838456,-0.0
5.55,0.0,0.0,0.0,0.0,-16.81091,0.0,0.0,2.3718028,-0.0
5.56,0.0,0.0,0.0,0.0,-16.787207,0.0,0.0,2.370168,-0.0
5.57,0.0,0.0,0.0,0.0,-16.763525,0.0,0.0,2.3680718,-0.0
5.58,0.0,0.0,0.0,0.0,-16.73987,0.0,0.0,2.3654919,-0.0
5.59,0.0,0.0,0.0,0.0,-16.716246,0.0,0.0,2.362428,-0.0
5.60,0.0,0.0,0.0,0.0,-16.692657,0.0,0.0,2.3589013,-0.0
5.61,0.0,0.0,0.0,0.0,-16.669107,0.0,0.0,2.354912,-0.0
5.62,0.0,0.0,0.0,0.0,-16.645494,0.0,0.0,2.3613367,-0.0
5.63,0.0,0.0,0.0,0.0,-16.621931,0.0,0.0,2.3564284,-0.0
5.64,0.0,0.0,0.0,0.0,-16.598421,0.0,0.0,2.350991,-0.0
5.65,0.0,0.0,0.0,0.0,-16.57497,0.0,0.0,2.3451328,-0.0
5.66,0.0,0.0,0.0,0.0,-16.551582,0.0,0.0,2.3387446,-0.0
5.67,0.0,0.0,0.0,0.0,-16.528263,0.0,0.0,2.3319135,-0.0
5.68,0.0,0.0,0.0,0.0,-16.504908,0.0,0.0,2.335516,-0.0
5.69,0.0,0.0,0.0,0.0,-16.48163,0.0,0.0,2.32774,-0.0
5.70,0.0,0.0,0.0,0.0,-16.458326,0.0,0.0,2.3303974,-0.0
5.71,0.0,0.0,0.0,0.0,-16.43511,0.0,0.0,2.3216755,-0.0
5.72,0.0,0.0,0.0,0.0,-16.411877,0.0,0.0,2.323408,-0.0
5.73,0.0,0.0,0.0,0.0,-16.388739,0.0,0.0,2.3137603,-0.0
5.74,0.0,0.0,0.0,0.0,-16.365593,0.0,0.0,2.314545,-0.0
5.75,0.0,0.0,0.0,0.0,-16.342443,0.0,0.0,2.3148916,-0.0
5.76,0.0,0.0,0.0,0.0,-16.319405,0.0,0.0,2.3038356,-0.0
5.77,0.0,0.0,0.0,0.0,-16.296371,0.0,0.0,2.3032324,-0.0
5.78,0.0,0.0,0.0,0.0,-16.27335,0.0,0.0,2.3021688,-0.0
5.79,0.0,0.0,0.0,0.0,-16.250343,0.0,0.0,2.300644,-0.0
5.80,0.0,0.0,0.0,0.0,-16.227356,0.0,0.0,2.298658,-0.0
5.81,0.0,0.0,0.0,0.0,-16.204393,0.0,0.0,2.2962103,-0.0
5.82,0.0,0.0,0.0,0.0,-16.18157,0.0,0.0,2.2824018,-0.0
5.83,0.0,0.0,0.0,0.0,-16.15867,0.0,0.0,2.2899213,-0.0
5.84,0.0,0.0,0.0,0.0,-16.135918,0.0,0.0,2.2751877,-0.0
5.85,0.0,0.0,0.0,0.0,-16.1131,0.0,0.0,2.281782,-0.0
5.86,0.0,0.0,0.0,0.0,-16.09033,0.0,0.0,2.2770433,-0.0
5.87,0.0,0.0,0.0,0.0,-16.067612,0.0,0.0,2.2718413,-0.0
5.88,0.0,0.0,0.0,0.0,-16.04495,0.0,0.0,2.2661755,-0.0
5.89,0.0,0.0,0.0,0.0,-16.02235,0.0,0.0,2.2600453,-0.0
5.90,0.0,0.0,0.0,0.0,-15.999706,0.0,0.0,2.2643716,-0.0
5.91,0.0,0.0,0.0,0.0,-15.977133,0.0,0.0,2.2573636,-0.0
5.92,0.0,0.0,0.0,0.0,-15.954525,0.0,0.0,2.2607682,-0.0
5.93,0.0,0.0,0.0,0.0,-15.931996,0.0,0.0,2.2528374,-0.0
5.94,0.0,0.0,0.0,0.0,-15.909552,0.0,0.0,2.2444413,-0.0
5.95,0.0,0.0,0.0,0.0,-15.887087,0.0,0.0,2.2464998,-0.0
5.96,0.0,0.0,0.0,0.0,-15.864606,0.0,0.0,2.2480998,-0.0
5.97,0.0,0.0,0.0,0.0,-15.842222,0.0,0.0,2.2383635,-0.0
5.98,0.0,0.0,0.0,0.0,-15.819832,0.0,0.0,2.2390597,-0.0
5.99,0.0,0.0,0.0,0.0,-15.797547,0.0,0.0,2.2284405,-0.0
6.00,0.0,0.0,0.0,0.0,-15.775265,0.0,0.0,2.2282314,-0.0
6.01,0.0,0.0,0.0,0.0,-15.752989,0.0,0.0,2.227584,-0.0
6.02,0.0,0.0,0.0,0.0,-15.730724,0.0,0.0,2.226476,-0.0
6.03,0.0,0.0,0.0,0.0,-15.708474,0.0,0.0,2.2249727,-0.0
6.04,0.0,0.0,0.0,0.0,-15.686354,0.0,0.0,2.2120874,-0.0
6.05,0.0,0.0,0.0,0.0,-15.664257,0.0,0.0,2.209632,-0.0
6.06,0.0,0.0,0.0,0.0,-15.642189,0.0,0.0,2.2067587,-0.0
6.07,0.0,0.0,0.0,0.0,-15.620046,0.0,0.0,2.2143445,-0.0
6.08,0.0,0.0,0.0,0.0,-15.5979395,0.0,0.0,2.210598,-0.0
6.09,0.0,0.0,0.0,0.0,-15.575875,0.0,0.0,2.2063892,-0.0
6.10,0.0,0.0,0.0,0.0,-15.553858,0.0,0.0,2.2017608,-0.0
6.11,0.0,0.0,0.0,0.0,-15.531891,0.0,0.0,2.1966696,-0.0
6.12,0.0,0.0,0.0,0.0,-15.509979,0.0,0.0,2.1911366,-0.0
6.13,0.0,0.0,0.0,0.0,-15.488128,0.0,0.0,2.1851616,-0.0
6.14,0.0,0.0,0.0,0.0,-15.466231,0.0,0.0,2.1896653,-0.0
6.15,0.0,0.0,0.0,0.0,-15.444404,0.0,0.0,2.182791,-0.0
6.16,0.0,0.0,0.0,0.0,-15.422648,0.0,0.0,2.175496,-0.0
6.17,0.0,0.0,0.0,0.0,-15.400862,0.0,0.0,2.1786785,-0.0
6.18,0.0,0.0,0.0,0.0,-15.379157,0.0,0.0,2.1705046,-0.0
6.19,0.0,0.0,0.0,0.0,-15.357429,0.0,0.0,2.1728072,-0.0
6.20,0.0,0.0,0.0,0.0,-15.335791,0.0,0.0,2.1637747,-0.0
6.21,0.0,0.0,0.0,0.0,-15.314138,0.0,0.0,2.1651971,-0.0
6.22,0.0,0.0,0.0,0.0,-15.292477,0.0,0.0,2.1661823,-0.0
6.23,0.0,0.0,0.0,0.0,-15.270918,0.0,0.0,2.1558528,-0.0
6.24,0.0,0.0,0.0,0.0,-15.249358,0.0,0.0,2.1559772,-0.0
6.25,0.0,0.0,0.0,0.0,-15.227801,0.0,0.0,2.1556418,-0.0
6.26,0.0,0.0,0.0,0.0,-15.206361,0.0,0.0,2.144013,-0.0
6.27,0.0,0.0,0.0,0.0,-15.184933,0.0,0.0,2.142815,-0.0
6.28,0.0,0.0,0.0,0.0,-15.163521,0.0,0.0,2.1412003,-0.0
6.29,0.0,0.0,0.0,0.0,-15.142129,0.0,0.0,2.1391683,-0.0
6.30,0.0,0.0,0.0,0.0,-15.120762,0.0,0.0,2.1367185,-0.0
6.31,0.0,0.0,0.0,0.0,-15.099423,0.0,0.0,2.1338072,-0.0
6.32,0.0,0.0,0.0,0.0,-15.078118,0.0,0.0,2.130478,-0.0
6.33,0.0,0.0,0.0,0.0,-15.056851,0.0,0.0,2.12673,-0.0
6.34,0.0,0.0,0.0,0.0,-15.035626,0.0,0.0,2.1225417,-0.0
6.35,0.0,0.0,0.0,0.0,-15.014447,0.0,0.0,2.1179125,-0.0
6.36,0.0,0.0,0.0,0.0,-14.99321,0.0,0.0,2.123785,-0.0
6.37,0.0,0.0,0.0,0.0,-14.972027,0.0,0.0,2.118346,-0.0
6.38,0.0,0.0,0.0,0.0,-14.950902,0.0,0.0,2.1124654,-0.0
6.39,0.0,0.0,0.0,0.0,-14.92984,0.0,0.0,2.106143,-0.0
6.40,0.0,0.0,0.0,0.0,-14.908737,0.0,0.0,2.1103213,-0.0
6.41,0.0,0.0,0.0,0.0,-14.887706,0.0,0.0,2.103165,-0.0
6.42,0.0,0.0,0.0,0.0,-14.866641,0.0,0.0,2.1064868,-0.0
6.43,0.0,0.0,0.0,0.0,-14.845656,0.0,0.0,2.0984957,-0.0
6.44,0.0,0.0,0.0,0.0,-14.824756,0.0,0.0,2.0900614,-0.0
6.45,0.0,0.0,0.0,0.0,-14.803835,0.0,0.0,2.0921044,-0.0
6.46,0.0,0.0,0.0,0.0,-14.782897,0.0,0.0,2.0937545,-0.0
6.47,0.0,0.0,0.0,0.0,-14.762056,0.0,0.0,2.0840685,-0.0
6.48,0.0,0.0,0.0,0.0,-14.741208,0.0,0.0,2.0848594,-0.0
6.49,0.0,0.0,0.0,0.0,-14.720356,0.0,0.0,2.085256,-0.0
6.50,0.0,0.0,0.0,0.0,-14.699613,0.0,0.0,2.0743163,-0.0
6.51,0.0,0.0,0.0,0.0,-14.678874,0.0,0.0,2.0738523,-0.0
6.52,0.0,0.0,0.0,0.0,-14.658144,0.0,0.0,2.0729718,-0.0
6.53,0.0,0.0,0.0,0.0,-14.637426,0.0,0.0,2.0717182,-0.0
6.54,0.0,0.0,0.0,0.0,-14.616726,0.0,0.0,2.0700042,-0.0
6.55,0.0,0.0,0.0,0.0,-14.596156,0.0,0.0,2.056974,-0.0
6.56,0.0,0.0,0.0,0.0,-14.575612,0.0,0.0,2.0544398,-0.0
6.57,0.0,0.0,0.0,0.0,-14.554988,0.0,0.0,2.062409,-0.0
6.58,0.0,0.0,0.0,0.0,-14.534397,0.0,0.0,2.0590463,-0.0
6.59,0.0,0.0,0.0,0.0,-14.5138445,0.0,0.0,2.0552871,-0.0
6.60,0.0,0.0,0.0,0.0,-14.493334,0.0,0.0,2.0511096,-0.0
6.61,0.0,0.0,0.0,0.0,-14.472869,0.0,0.0,2.046513,-0.0
6.62,0.0,0.0,0.0,0.0,-14.452454,0.0,0.0,2.0414977,-0.0
6.63,0.0,0.0,0.0,0.0,-14.432093,0.0,0.0,2.0360847,-0.0
6.64,0.0,0.0,0.0,0.0,-14.41179,0.0,0.0,2.0302305,-0.0
6.65,0.0,0.0,0.0,0.0,-14.391441,0.0,0.0,2.0348992,-0.0
6.66,0.0,0.0,0.0,0.0,-14.371159,0.0,0.0,2.0282557,-0.0
6.67,0.0,0.0,0.0,0.0,-14.350838,0.0,0.0,2.0321128,-0.0
6.68,0.0,0.0,0.0,0.0,-14.330591,0.0,0.0,2.0246575,-0.0
6.69,0.0,0.0,0.0,0.0,-14.310424,0.0,0.0,2.016781,-0.0
6.70,0.0,0.0,0.0,0.0,-14.29023,0.0,0.0,2.0194046,-0.0
6.71,0.0,0.0,0.0,0.0,-14.270123,0.0,0.0,2.0107148,-0.0
6.72,0.0,0.0,0.0,0.0,-14.249997,0.0,0.0,2.0125244,-0.0
6.73,0.0,0.0,0.0,0.0,-14.229857,0.0,0.0,2.0139408,-0.0
6.74,0.0,0.0,0.0,0.0,-14.209817,0.0,0.0,2.004043,-0.0
6.75,0.0,0.0,0.0,0.0,-14.189771,0.0,0.0,2.004644,-0.0
6.76,0.0,0.0,0.0,0.0,-14.169723,0.0,0.0,2.004851,-0.0
6.77,0.0,0.0,0.0,0.0,-14.149676,0.0,0.0,2.0046642,-0.0
6.78,0.0,0.0,0.0,0.0,-14.129745,0.0,0.0,1.993162,-0.0
6.79,0.0,0.0,0.0,0.0,-14.109823,0.0,0.0,1.9921576,-0.0
6.80,0.0,0.0,0.0,0.0,-14.089915,0.0,0.0,1.9907584,-0.0
6.81,0.0,0.0,0.0,0.0,-14.070025,0.0,0.0,1.9889423,-0.0
6.82,0.0,0.0,0.0,0.0,-14.050158,0.0,0.0,1.9867527,-0.0
6.83,0.0,0.0,0.0,0.0,-14.030315,0.0,0.0,1.9841678,-0.0
6.84,0.0,0.0,0.0,0.0,-14.010504,0.0,0.0,1.9811653,-0.0
6.85,0.0,0.0,0.0,0.0,-13.9907255,0.0,0.0,1.9777884,-0.0
6.86,0.0,0.0,0.0,0.0,-13.970985,0.0,0.0,1.9739717,-0.0
6.87,0.0,0.0,0.0,0.0,-13.951287,0.0,0.0,1.9698023,-0.0
6.88,0.0,0.0,0.0,0.0,-13.931635,0.0,0.0,1.965214,-0.0
6.89,0.0,0.0,0.0,0.0,-13.912033,0.0,0.0,1.960229,-0.0
6.90,0.0,0.0,0.0,0.0,-13.892376,0.0,0.0,1.9657459,-0.0
6.91,0.0,0.0,0.0,0.0,-13.872776,0.0,0.0,1.9599947,-0.0
6.92,0.0,0.0,0.0,0.0,-13.853238,0.0,0.0,1.9538242,-0.0
6.93,0.0,0.0,0.0,0.0,-13.833656,0.0,0.0,1.9581765,-0.0
6.94,0.0,0.0,0.0,0.0,-13.814144,0.0,0.0,1.9512165,-0.0
6.95,0.0,0.0,0.0,0.0,-13.794705,0.0,0.0,1.94388,-0.0
6.96,0.0,0.0,0.0,0.0,-13.775235,0.0,0.0,1.947044,-0.0
6.97,0.0,0.0,0.0,0.0,-13.755846,0.0,0.0,1.9389168,-0.0
6.98,0.0,0.0,0.0,0.0,-13.736433,0.0,0.0,1.9412895,-0.0
6.99,0.0,0.0,0.0,0.0,-13.717,0.0,0.0,1.9433135,-0.0
7.00,0.0,0.0,0.0,0.0,-13.6976595,0.0,0.0,1.9340235,-0.0
7.01,0.0,0.0,0.0,0.0,-13.678307,0.0,0.0,1.9352547,-0.0
7.02,0.0,0.0,0.0,0.0,-13.659055,0.0,0.0,1.9251937,-0.0
7.03,0.0,0.0,0.0,0.0,-13.639798,0.0,0.0,1.9256314,-0.0
7.04,0.0,0.0,0.0,0.0,-13.620542,0.0,0.0,1.9256754,-0.0
7.05,0.0,0.0,0.0,0.0,-13.601288,0.0,0.0,1.925369,-0.0
7.06,0.0,0.0,0.0,0.0,-13.58215,0.0,0.0,1.9137474,-0.0
7.07,0.0,0.0,0.0,0.0,-13.563024,0.0,0.0,1.9126674,-0.0
7.08,0.0,0.0,0.0,0.0,-13.543912,0.0,0.0,1.9111712,-0.0
7.09,0.0,0.0,0.0,0.0,-13.524819,0.0,0.0,1.9093016,-0.0
7.10,0.0,0.0,0.0,0.0,-13.505749,0.0,0.0,1.9070588,-0.0
7.11,0.0,0.0,0.0,0.0,-13.486705,0.0,0.0,1.9044205,-0.0
7.12,0.0,0.0,0.0,0.0,-13.467691,0.0,0.0,1.9013869,-0.0
7.13,0.0,0.0,0.0,0.0,-13.448711,0.0,0.0,1.8980006,-0.0
7.14,0.0,0.0,0.0,0.0,-13.4297695,0.0,0.0,1.8942186,-0.0
7.15,0.0,0.0,0.0,0.0,-13.41076,0.0,0.0,1.9009831,-0.0
7.16,0.0,0.0,0.0,0.0,-13.391795,0.0,0.0,1.8964366,-0.0
7.17,0.0,0.0,0.0,0.0,-13.37288,0.0,0.0,1.8915153,-0.0
7.18,0.0,0.0,0.0,0.0,-13.354017,0.0,0.0,1.8862406,-0.0
7.19,0.0,0.0,0.0,0.0,-13.335212,0.0,0.0,1.880547,-0.0
7.20,0.0,0.0,0.0,0.0,-13.316358,0.0,0.0,1.8853989,-0.0
7.21,0.0,0.0,0.0,0.0,-13.297567,0.0,0.0,1.8789822,-0.0
7.22,0.0,0.0,0.0,0.0,-13.278846,0.0,0.0,1.8721678,-0.0
7.23,0.0,0.0,0.0,0.0,-13.260087,0.0,0.0,1.8758982,-0.0
7.24,0.0,0.0,0.0,0.0,-13.241404,0.0,0.0,1.8683376,-0.0
7.25,0.0,0.0,0.0,0.0,-13.222691,0.0,0.0,1.8712996,-0.0
7.26,0.0,0.0,0.0,0.0,-13.204061,0.0,0.0,1.8629919,-0.0
7.27,0.0,0.0,0.0,0.0,-13.185409,0.0,0.0,1.8652065,-0.0
7.28,0.0,0.0,0.0,0.0,-13.166847,0.0,0.0,1.8561292,-0.0
7.29,0.0,0.0,0.0,0.0,-13.148271,0.0,0.0,1.8576173,-0.0
7.30,0.0,0.0,0.0,0.0,-13.1296835,0.0,0.0,1.8586905,-0.0
7.31,0.0,0.0,0.0,0.0,-13.111198,0.0,0.0,1.8485367,-0.0
7.32,0.0,0.0,0.0,0.0,-13.09271,0.0,0.0,1.8488821,-0.0
7.33,0.0,0.0,0.0,0.0,-13.074221,0.0,0.0,1.8488557,-0.0
7.34,0.0,0.0,0.0,0.0,-13.055736,0.0,0.0,1.8484789,-0.0
7.35,0.0,0.0,0.0,0.0,-13.037368,0.0,0.0,1.8368088,-0.0
7.36,0.0,0.0,0.0,0.0,-13.019011,0.0,0.0,1.8356807,-0.0
7.37,0.0,0.0,0.0,0.0,-13.000669,0.0,0.0,1.83418,-0.0
7.38,0.0,0.0,0.0,0.0,-12.982346,0.0,0.0,1.8323063,-0.0
7.39,0.0,0.0,0.0,0.0,-12.964045,0.0,0.0,1.8300813,-0.0
7.40,0.0,0.0,0.0,0.0,-12.94577,0.0,0.0,1.8274609,-0.0
7.41,0.0,0.0,0.0,0.0,-12.9275255,0.0,0.0,1.8244889,-0.0
7.42,0.0,0.0,0.0,0.0,-12.909314,0.0,0.0,1.8211647,-0.0
7.43,0.0,0.0,0.0,0.0,-12.891139,0.0,0.0,1.8174667,-0.0
7.44,0.0,0.0,0.0,0.0,-12.872896,0.0,0.0,1.8242937,-0.0
7.45,0.0,0.0,0.0,0.0,-12.854697,0.0,0.0,1.8198752,-0.0
7.46,0.0,0.0,0.0,0.0,-12.836546,0.0,0.0,1.8150821,-0.0
7.47,0.0,0.0,0.0,0.0,-12.818447,0.0,0.0,1.8099141,-0.0
7.48,0.0,0.0,0.0,0.0,-12.800404,0.0,0.0,1.8043929,-0.0
7.49,0.0,0.0,0.0,0.0,-12.78231,0.0,0.0,1.8094176,-0.0
7.50,0.0,0.0,0.0,0.0,-12.764277,0.0,0.0,1.8031737,-0.0
7.51,0.0,0.0,0.0,0.0,-12.746312,0.0,0.0,1.7965761,-0.0
7.52,0.0,0.0,0.0,0.0,-12.728308,0.0,0.0,1.8004801,-0.0
7.53,0.0,0.0,0.0,0.0,-12.710376,0.0,0.0,1.7931588,-0.0
7.54,0.0,0.0,0.0,0.0,-12.692412,0.0,0.0,1.7963822,-0.0
7.55,0.0,0.0,0.0,0.0,-12.674529,0.0,0.0,1.7883363,-0.0
7.56,0.0,0.0,0.0,0.0,-12.656621,0.0,0.0,1.7908128,-0.0
7.57,0.0,0.0,0.0,0.0,-12.638801,0.0,0.0,1.7820417,-0.0
7.58,0.0,0.0,0.0,0.0,-12.620962,0.0,0.0,1.7838144,-0.0
7.59,0.0,0.0,0.0,0.0,-12.603109,0.0,0.0,1.7852378,-0.0
7.60,0.0,0.0,0.0,0.0,-12.585355,0.0,0.0,1.7754128,-0.0
7.61,0.0,0.0,0.0,0.0,-12.567594,0.0,0.0,1.7761095,-0.0
7.62,0.0,0.0,0.0,0.0,-12.5498295,0.0,0.0,1.7764562,-0.0
7.63,0.0,0.0,0.0,0.0,-12.532174,0.0,0.0,1.765532,-0.0
7.64,0.0,0.0,0.0,0.0,-12.514523,0.0,0.0,1.7651943,-0.0
7.65,0.0,0.0,0.0,0.0,-12.496878,0.0,0.0,1.7644626,-0.0
7.66,0.0,0.0,0.0,0.0,-12.479243,0.0,0.0,1.7634021,-0.0
7.67,0.0,0.0,0.0,0.0,-12.461623,0.0,0.0,1.761969,-0.0
7.68,0.0,0.0,0.0,0.0,-12.444021,0.0,0.0,1.760185,-0.0
7.69,0.0,0.0,0.0,0.0,-12.42644,0.0,0.0,1.7580718,-0.0
7.70,0.0,0.0,0.0,0.0,-12.408884,0.0,0.0,1.755607,-0.0
7.71,0.0,0.0,0.0,0.0,-12.391356,0.0,0.0,1.752769,-0.0
7.72,0.0,0.0,0.0,0.0,-12.37386,0.0,0.0,1.749601,-0.0
7.73,0.0,0.0,0.0,0.0,-12.3564,0.0,0.0,1.7460593,-0.0
7.74,0.0,0.0,0.0,0.0,-12.338978,0.0,0.0,1.7421654,-0.0
7.75,0.0,0.0,0.0,0.0,-12.321599,0.0,0.0,1.7379196,-0.0
7.76,0.0,0.0,0.0,0.0,-12.304266,0.0,0.0,1.7333428,-0.0
7.77,0.0,0.0,0.0,0.0,-12.286983,0.0,0.0,1.7283915,-0.0
7.78,0.0,0.0,0.0,0.0,-12.269643,0.0,0.0,1.7340084,-0.0
7.79,0.0,0.0,0.0,0.0,-12.252359,0.0,0.0,1.7283791,-0.0
7.80,0.0,0.0,0.0,0.0,-12.235135,0.0,0.0,1.7223858,-0.0
7.81,0.0,0.0,0.0,0.0,-12.217865,0.0,0.0,1.7269709,-0.0
7.82,0.0,0.0,0.0,0.0,-12.200662,0.0,0.0,1.7203093,-0.0
7.83,0.0,0.0,0.0,0.0,-12.18342,0.0,0.0,1.724193,-0.0
7.84,0.0,0.0,0.0,0.0,-12.166252,0.0,0.0,1.7168295,-0.0
7.85,0.0,0.0,0.0,0.0,-12.149052,0.0,0.0,1.7200438,-0.0
7.86,0.0,0.0,0.0,0.0,-12.131931,0.0,0.0,1.7119998,-0.0
7.87,0.0,0.0,0.0,0.0,-12.114786,0.0,0.0,1.7145004,-0.0
7.88,0.0,0.0,0.0,0.0,-12.097729,0.0,0.0,1.7057749,-0.0
7.89,0.0,0.0,0.0,0.0,-12.080652,0.0,0.0,1.7076048,-0.0
7.90,0.0,0.0,0.0,0.0,-12.06367,0.0,0.0,1.6981753,-0.0
7.91,0.0,0.0,0.0,0.0,-12.046677,0.0,0.0,1.699312,-0.0
7.92,0.0,0.0,0.0,0.0,-12.0296755,0.0,0.0,1.7001098,-0.0
7.93,0.0,0.0,0.0,0.0,-12.01267,0.0,0.0,1.7005689,-0.0
7.94,0.0,0.0,0.0,0.0,-11.995771,0.0,0.0,1.68979,-0.0
7.95,0.0,0.0,0.0,0.0,-11.978876,0.0,0.0,1.6895652,-0.0
7.96,0.0,0.0,0.0,0.0,-11.961987,0.0,0.0,1.6890012,-0.0
7.97,0.0,0.0,0.0,0.0,-11.945106,0.0,0.0,1.6881084,-0.0
7.98,0.0,0.0,0.0,0.0,-11.928237,0.0,0.0,1.6868764,-0.0
7.99,0.0,0.0,0.0,0.0,-11.911384,0.0,0.0,1.6853043,-0.0
8.00,0.0,0.0,0.0,0.0,-11.894659,0.0,0.0,1.6724821,-0.0
8.01,0.0,0.0,0.0,0.0,-11.877848,0.0,0.0,1.6811451,-0.0
8.02,0.0,0.0,0.0,0.0,-11.861062,0.0,0.0,1.6785636,-0.0
8.03,0.0,0.0,0.0,0.0,-11.844306,0.0,0.0,1.6756523,-0.0
8.04,0.0,0.0,0.0,0.0,-11.827582,0.0,0.0,1.6724005,-0.0
8.05,0.0,0.0,0.0,0.0,-11.810894,0.0,0.0,1.6688076,-0.0
8.06,0.0,0.0,0.0,0.0,-11.794245,0.0,0.0,1.6648957,-0.0
8.07,0.0,0.0,0.0,0.0,-11.777638,0.0,0.0,1.6606207,-0.0
8.08,0.0,0.0,0.0,0.0,-11.761078,0.0,0.0,1.6560262,-0.0
8.09,0.0,0.0,0.0,0.0,-11.744567,0.0,0.0,1.65109,-0.0
8.10,0.0,0.0,0.0,0.0,-11.728,0.0,0.0,1.6567333,-0.0
8.11,0.0,0.0,0.0,0.0,-11.711489,0.0,0.0,1.6511303,-0.0
8.12,0.0,0.0,0.0,0.0,-11.695037,0.0,0.0,1.6451962,-0.0
8.13,0.0,0.0,0.0,0.0,-11.678538,0.0,0.0,1.6498517,-0.0
8.14,0.0,0.0,0.0,0.0,-11.662106,0.0,0.0,1.6432604,-0.0
8.15,0.0,0.0,0.0,0.0,-11.645633,0.0,0.0,1.6472477,-0.0
8.16,0.0,0.0,0.0,0.0,-11.629232,0.0,0.0,1.6400095,-0.0
8.17,0.0,0.0,0.0,0.0,-11.612799,0.0,0.0,1.6433388,-0.0
8.18,0.0,0.0,0.0,0.0,-11.596444,0.0,0.0,1.6354424,-0.0
8.19,0.0,0.0,0.0,0.0,-11.580063,0.0,0.0,1.6381128,-0.0
8.20,0.0,0.0,0.0,0.0,-11.563767,0.0,0.0,1.6295682,-0.0
8.21,0.0,0.0,0.0,0.0,-11.547452,0.0,0.0,1.6315682,-0.0
8.22,0.0,0.0,0.0,0.0,-11.531228,0.0,0.0,1.622353,-0.0
8.23,0.0,0.0,0.0,0.0,-11.514991,0.0,0.0,1.6237148,-0.0
8.24,0.0,0.0,0.0,0.0,-11.498743,0.0,0.0,1.6247493,-0.0
8.25,0.0,0.0,0.0,0.0,-11.482489,0.0,0.0,1.6254778,-0.0
8.26,0.0,0.0,0.0,0.0,-11.466339,0.0,0.0,1.6149577,-0.0
8.27,0.0,0.0,0.0,0.0,-11.450189,0.0,0.0,1.615025,-0.0
8.28,0.0,0.0,0.0,0.0,-11.434041,0.0,0.0,1.6147641,-0.0
8.29,0.0,0.0,0.0,0.0,-11.417899,0.0,0.0,1.6141748,-0.0
8.30,0.0,0.0,0.0,0.0,-11.401767,0.0,0.0,1.6132791,-0.0
8.31,0.0,0.0,0.0,0.0,-11.385646,0.0,0.0,1.6120547,-0.0
8.32,0.0,0.0,0.0,0.0,-11.36965,0.0,0.0,1.5995915,-0.0
8.33,0.0,0.0,0.0,0.0,-11.353673,0.0,0.0,1.5977148,-0.0
8.34,0.0,0.0,0.0,0.0,-11.337718,0.0,0.0,1.595498,-0.0
8.35,0.0,0.0,0.0,0.0,-11.321679,0.0,0.0,1.6038948,-0.0
8.36,0.0,0.0,0.0,0.0,-11.305669,0.0,0.0,1.6010686,-0.0
8.37,0.0,0.0,0.0,0.0,-11.28969,0.0,0.0,1.5979129,-0.0
8.38,0.0,0.0,0.0,0.0,-11.273746,0.0,0.0,1.5944492,-0.0
8.39,0.0,0.0,0.0,0.0,-11.257839,0.0,0.0,1.5906556,-0.0
8.40,0.0,0.0,0.0,0.0,-11.241974,0.0,0.0,1.5865428,-0.0
8.41,0.0,0.0,0.0,0.0,-11.226152,0.0,0.0,1.5821108,-0.0
8.42,0.0,0.0,0.0,0.0,-11.210379,0.0,0.0,1.5773486,-0.0
8.43,0.0,0.0,0.0,0.0,-11.194547,0.0,0.0,1.5831876,-0.0
8.44,0.0,0.0,0.0,0.0,-11.178769,0.0,0.0,1.5778024,-0.0
8.45,0.0,0.0,0.0,0.0,-11.163048,0.0,0.0,1.5720972,-0.0
8.46,0.0,0.0,0.0,0.0,-11.147278,0.0,0.0,1.576993,-0.0
8.47,0.0,0.0,0.0,0.0,-11.131572,0.0,0.0,1.5706531,-0.0
8.48,0.0,0.0,0.0,0.0,-11.1159315,0.0,0.0,1.5640036,-0.0
8.49,0.0,0.0,0.0,0.0,-11.100252,0.0,0.0,1.5679438,-0.0
8.50,0.0,0.0,0.0,0.0,-11.084645,0.0,0.0,1.5606697,-0.0
8.51,0.0,0.0,0.0,0.0,-11.069006,0.0,0.0,1.5639738,-0.0
8.52,0.0,0.0,0.0,0.0,-11.053445,0.0,0.0,1.556085,-0.0
8.53,0.0,0.0,0.0,0.0,-11.037857,0.0,0.0,1.5587635,-0.0
8.54,0.0,0.0,0.0,0.0,-11.022245,0.0,0.0,1.5611478,-0.0
8.55,0.0,0.0,0.0,0.0,-11.006722,0.0,0.0,1.5523063,-0.0
8.56,0.0,0.0,0.0,0.0,-10.991181,0.0,0.0,1.5540642,-0.0
8.57,0.0,0.0,0.0,0.0,-10.975736,0.0,0.0,1.5445956,-0.0
8.58,0.0,0.0,0.0,0.0,-10.9602785,0.0,0.0,1.5457153,-0.0
8.59,0.0,0.0,0.0,0.0,-10.944813,0.0,0.0,1.5465512,-0.0
8.60,0.0,0.0,0.0,0.0,-10.929342,0.0,0.0,1.5470594,-0.0
8.61,0.0,0.0,0.0,0.0,-10.913979,0.0,0.0,1.5363624,-0.0
8.62,0.0,0.0,0.0,0.0,-10.898616,0.0,0.0,1.5362531,-0.0
8.63,0.0,0.0,0.0,0.0,-10.883258,0.0,0.0,1.5358266,-0.0
8.64,0.0,0.0,0.0,0.0,-10.867907,0.0,0.0,1.5351045,-0.0
8.65,0.0,0.0,0.0,0.0,-10.852566,0.0,0.0,1.5340868,-0.0
8.66,0.0,0.0,0.0,0.0,-10.837238,0.0,0.0,1.5327516,-0.0
8.67,0.0,0.0,0.0,0.0,-10.821927,0.0,0.0,1.5311093,-0.0
8.68,0.0,0.0,0.0,0.0,-10.806635,0.0,0.0,1.529171,-0.0
8.69,0.0,0.0,0.0,0.0,-10.791474,0.0,0.0,1.5160154,-0.0
8.70,0.0,0.0,0.0,0.0,-10.776231,0.0,0.0,1.5243565,-0.0
8.71,0.0,0.0,0.0,0.0,-10.761016,0.0,0.0,1.5214962,-0.0
8.72,0.0,0.0,0.0,0.0,-10.745832,0.0,0.0,1.5183284,-0.0
8.73,0.0,0.0,0.0,0.0,-10.730684,0.0,0.0,1.5148528,-0.0
8.74,0.0,0.0,0.0,0.0,-10.715573,0.0,0.0,1.5110801,-0.0
8.75,0.0,0.0,0.0,0.0,-10.700503,0.0,0.0,1.5069886,-0.0
8.76,0.0,0.0,0.0,0.0,-10.685477,0.0,0.0,1.5026,-0.0
8.77,0.0,0.0,0.0,0.0,-10.670389,0.0,0.0,1.5088129,-0.0
8.78,0.0,0.0,0.0,0.0,-10.655351,0.0,0.0,1.5038344,-0.0
8.79,0.0,0.0,0.0,0.0,-10.640366,0.0,0.0,1.4985363,-0.0
8.80,0.0,0.0,0.0,0.0,-10.625327,0.0,0.0,1.5038508,-0.0
8.81,0.0,0.0,0.0,0.0,-10.610348,0.0,0.0,1.4979731,-0.0
8.82,0.0,0.0,0.0,0.0,-10.59543,0.0,0.0,1.4917647,-0.0
8.83,0.0,0.0,0.0,0.0,-10.580468,0.0,0.0,1.4961898,-0.0
8.84,0.0,0.0,0.0,0.0,-10.565575,0.0,0.0,1.4894009,-0.0
8.85,0.0,0.0,0.0,0.0,-10.550643,0.0,0.0,1.4932127,-0.0
8.86,0.0,0.0,0.0,0.0,-10.535785,0.0,0.0,1.4858317,-0.0
8.87,0.0,0.0,0.0,0.0,-10.521004,0.0,0.0,1.4781412,-0.0
8.88,0.0,0.0,0.0,0.0,-10.506193,0.0,0.0,1.4810618,-0.0
8.89,0.0,0.0,0.0,0.0,-10.491357,0.0,0.0,1.4836776,-0.0
8.90,0.0,0.0,0.0,0.0,-10.476605,0.0,0.0,1.4751004,-0.0
8.91,0.0,0.0,0.0,0.0,-10.461834,0.0,0.0,1.4771339,-0.0
8.92,0.0,0.0,0.0,0.0,-10.447045,0.0,0.0,1.478873,-0.0
8.93,0.0,0.0,0.0,0.0,-10.432351,0.0,0.0,1.4694185,-0.0
8.94,0.0,0.0,0.0,0.0,-10.417645,0.0,0.0,1.4705526,-0.0
8.95,0.0,0.0,0.0,0.0,-10.402931,0.0,0.0,1.4714029,-0.0
8.96,0.0,0.0,0.0,0.0,-10.388321,0.0,0.0,1.4610592,-0.0
8.97,0.0,0.0,0.0,0.0,-10.373708,0.0,0.0,1.4613144,-0.0
8.98,0.0,0.0,0.0,0.0,-10.359095,0.0,0.0,1.4612749,-0.0
8.99,0.0,0.0,0.0,0.0,-10.344485,0.0,0.0,1.4609616,-0.0
9.00,0.0,0.0,0.0,0.0,-10.329882,0.0,0.0,1.4603423,-0.0
9.01,0.0,0.0,0.0,0.0,-10.315288,0.0,0.0,1.4594381,-0.0
9.02,0.0,0.0,0.0,0.0,-10.300815,0.0,0.0,1.4473393,-0.0
9.03,0.0,0.0,0.0,0.0,-10.286356,0.0,0.0,1.4458387,-0.0
9.04,0.0,0.0,0.0,0.0,-10.271807,0.0,0.0,1.4549632,-0.0
9.05,0.0,0.0,0.0,0.0,-10.257387,0.0,0.0,1.4419765,-0.0
9.06,0.0,0.0,0.0,0.0,-10.242882,0.0,0.0,1.4505198,-0.0
9.07,0.0,0.0,0.0,0.0,-10.228403,0.0,0.0,1.4478724,-0.0
9.08,0.0,0.0,0.0,0.0,-10.213954,0.0,0.0,1.4449397,-0.0
9.09,0.0,0.0,0.0,0.0,-10.199536,0.0,0.0,1.4417212,-0.0
9.10,0.0,0.0,0.0,0.0,-10.185154,0.0,0.0,1.4382061,-0.0
9.11,0.0,0.0,0.0,0.0,-10.17081,0.0,0.0,1.4343944,-0.0
9.12,0.0,0.0,0.0,0.0,-10.156507,0.0,0.0,1.4302962,-0.0
9.13,0.0,0.0,0.0,0.0,-10.142247,0.0,0.0,1.4259121,-0.0
9.14,0.0,0.0,0.0,0.0,-10.127926,0.0,0.0,1.4321518,-0.0
9.15,0.0,0.0,0.0,0.0,-10.113654,0.0,0.0,1.4271998,-0.0
9.16,0.0,0.0,0.0,0.0,-10.099435,0.0,0.0,1.4219506,-0.0
9.17,0.0,0.0,0.0,0.0,-10.085161,0.0,0.0,1.4273245,-0.0
9.18,0.0,0.0,0.0,0.0,-10.070946,0.0,0.0,1.4215286,-0.0
9.19,0.0,0.0,0.0,0.0,-10.056791,0.0,0.0,1.4154238,-0.0
9.20,0.0,0.0,0.0,0.0,-10.042592,0.0,0.0,1.419953,-0.0
9.21,0.0,0.0,0.0,0.0,-10.02846,0.0,0.0,1.4132898,-0.0
9.22,0.0,0.0,0.0,0.0,-10.014287,0.0,0.0,1.4172494,-0.0
9.23,0.0,0.0,0.0,0.0,-10.000187,0.0,0.0,1.4100165,-0.0
9.24,0.0,0.0,0.0,0.0,-9.986162,0.0,0.0,1.4024961,-0.0
9.25,0.0,0.0,0.0,0.0,-9.972106,0.0,0.0,1.405609,-0.0
9.26,0.0,0.0,0.0,0.0,-9.958022,0.0,0.0,1.4084282,-0.0
9.27,0.0,0.0,0.0,0.0,-9.944021,0.0,0.0,1.400076,-0.0
9.28,0.0,0.0,0.0,0.0,-9.929997,0.0,0.0,1.402335,-0.0
9.29,0.0,0.0,0.0,0.0,-9.916063,0.0,0.0,1.3934116,-0.0
9.30,0.0,0.0,0.0,0.0,-9.902112,0.0,0.0,1.3950993,-0.0
9.31,0.0,0.0,0.0,0.0,-9.888146,0.0,0.0,1.396536,-0.0
9.32,0.0,0.0,0.0,0.0,-9.874169,0.0,0.0,1.3976783,-0.0
9.33,0.0,0.0,0.0,0.0,-9.860293,0.0,0.0,1.3876377,-0.0
9.34,0.0,0.0,0.0,0.0,-9.846411,0.0,0.0,1.3882293,-0.0
9.35,0.0,0.0,0.0,0.0,-9.832525,0.0,0.0,1.388526,-0.0
9.36,0.0,0.0,0.0,0.0,-9.81864,0.0,0.0,1.3885604,-0.0
9.37,0.0,0.0,0.0,0.0,-9.804866,0.0,0.0,1.3774115,-0.0
9.38,0.0,0.0,0.0,0.0,-9.791097,0.0,0.0,1.3768725,-0.0
9.39,0.0,0.0,0.0,0.0,-9.777336,0.0,0.0,1.376071,-0.0
9.40,0.0,0.0,0.0,0.0,-9.763586,0.0,0.0,1.3749956,-0.0
9.41,0.0,0.0,0.0,0.0,-9.749849,0.0,0.0,1.3736248,-0.0
9.42,0.0,0.0,0.0,0.0,-9.73613,0.0,0.0,1.3720018,-0.0
9.43,0.0,0.0,0.0,0.0,-9.722429,0.0,0.0,1.370083,-0.0
9.44,0.0,0.0,0.0,0.0,-9.70875,0.0,0.0,1.3679117,-0.0
9.45,0.0,0.0,0.0,0.0,-9.695095,0.0,0.0,1.3654554,-0.0
9.46,0.0,0.0,0.0,0.0,-9.681358,0.0,0.0,1.3736347,-0.0
9.47,0.0,0.0,0.0,0.0,-9.667652,0.0,0.0,1.370645,-0.0
9.48,0.0,0.0,0.0,0.0,-9.653978,0.0,0.0,1.3673917,-0.0
9.49,0.0,0.0,0.0,0.0,-9.64034,0.0,0.0,1.3638418,-0.0
9.50,0.0,0.0,0.0,0.0,-9.6267395,0.0,0.0,1.360039,-0.0
9.51,0.0,0.0,0.0,0.0,-9.613289,0.0,0.0,1.3450184,-0.0
9.52,0.0,0.0,0.0,0.0,-9.599773,0.0,0.0,1.3515489,-0.0
9.53,0.0,0.0,0.0,0.0,-9.586305,0.0,0.0,1.3469099,-0.0
9.54,0.0,0.0,0.0,0.0,-9.572885,0.0,0.0,1.3419956,-0.0
9.55,0.0,0.0,0.0,0.0,-9.5592985,0.0,0.0,1.3586369,-0.0
9.56,0.0,0.0,0.0,0.0,-9.545767,0.0,0.0,1.3532028,-0.0
9.57,0.0,0.0,0.0,0.0,-9.532292,0.0,0.0,1.3474932,-0.0
9.58,0.0,0.0,0.0,0.0,-9.518877,0.0,0.0,1.3415077,-0.0
9.59,0.0,0.0,0.0,0.0,-9.505525,0.0,0.0,1.3352573,-0.0
9.60,0.0,0.0,0.0,0.0,-9.49202,0.0,0.0,1.3505402,-0.0
9.61,0.0,0.0,0.0,0.0,-9.478582,0.0,0.0,1.3437688,-0.0
9.62,0.0,0.0,0.0,0.0,-9.465215,0.0,0.0,1.3367214,-0.0
9.63,0.0,0.0,0.0,0.0,-9.4519205,0.0,0.0,1.3293976,-0.0
9.64,0.0,0.0,0.0,0.0,-9.438703,0.0,0.0,1.3217865,-0.0
9.65,0.0,0.0,0.0,0.0,-9.425345,0.0,0.0,1.3357301,-0.0
9.66,0.0,0.0,0.0,0.0,-9.412069,0.0,0.0,1.3276079,-0.0
9.67,0.0,0.0,0.0,0.0,-9.398877,0.0,0.0,1.3192198,-0.0
9.68,0.0,0.0,0.0,0.0,-9.385553,0.0,0.0,1.3323752,-0.0
9.69,0.0,0.0,0.0,0.0,-9.372319,0.0,0.0,1.3234535,-0.0
9.70,0.0,0.0,0.0,0.0,-9.359177,0.0,0.0,1.3142657,-0.0
9.71,0.0,0.0,0.0,0.0,-9.34591,0.0,0.0,1.3266209,-0.0
9.72,0.0,0.0,0.0,0.0,-9.332741,0.0,0.0,1.3169098,-0.0
9.73,0.0,0.0,0.0,0.0,-9.319672,0.0,0.0,1.3069322,-0.0
9.74,0.0,0.0,0.0,0.0,-9.306487,0.0,0.0,1.3184865,-0.0
9.75,0.0,0.0,0.0,0.0,-9.293407,0.0,0.0,1.3079957,-0.0
9.76,0.0,0.0,0.0,0.0,-9.280217,0.0,0.0,1.3190365,-0.0
9.77,0.0,0.0,0.0,0.0,-9.267137,0.0,0.0,1.3080213,-0.0
9.78,0.0,0.0,0.0,0.0,-9.254169,0.0,0.0,1.2967174,-0.0
9.79,0.0,0.0,0.0,0.0,-9.241099,0.0,0.0,1.3069665,-0.0
9.80,0.0,0.0,0.0,0.0,-9.2281475,0.0,0.0,1.2951484,-0.0
9.81,0.0,0.0,0.0,0.0,-9.215098,0.0,0.0,1.3048831,-0.0
9.82,0.0,0.0,0.0,0.0,-9.202173,0.0,0.0,1.2925502,-0.0
9.83,0.0,0.0,0.0,0.0,-9.189156,0.0,0.0,1.3017701,-0.0
9.84,0.0,0.0,0.0,0.0,-9.176267,0.0,0.0,1.2889005,-0.0
9.85,0.0,0.0,0.0,0.0,-9.163291,0.0,0.0,1.2975942,-0.0
9.86,0.0,0.0,0.0,0.0,-9.150449,0.0,0.0,1.2842199,-0.0
9.87,0.0,0.0,0.0,0.0,-9.137525,0.0,0.0,1.292398,-0.0
9.88,0.0,0.0,0.0,0.0,-9.12474,0.0,0.0,1.2785078,-0.0
9.89,0.0,0.0,0.0,0.0,-9.111878,0.0,0.0,1.2861588,-0.0
9.90,0.0,0.0,0.0,0.0,-9.098943,0.0,0.0,1.2935834,-0.0
9.91,0.0,0.0,0.0,0.0,-9.086154,0.0,0.0,1.2789177,-0.0
9.92,0.0,0.0,0.0,0.0,-9.073296,0.0,0.0,1.2858145,-0.0
9.93,0.0,0.0,0.0,0.0,-9.060589,0.0,0.0,1.2706429,-0.0
9.94,0.0,0.0,0.0,0.0,-9.047818,0.0,0.0,1.2770228,-0.0
9.95,0.0,0.0,0.0,0.0,-9.0349865,0.0,0.0,1.2831538,-0.0
9.96,0.0,0.0,0.0,0.0,-9.022314,0.0,0.0,1.267205,-0.0
9.97,0.0,0.0,0.0,0.0,-9.009586,0.0,0.0,1.2728183,-0.0
9.98,0.0,0.0,0.0,0.0,-8.996804,0.0,0.0,1.2781935,-0.0
9.99,0.0,0.0,0.0,0.0,-8.984189,0.0,0.0,1.2614884,-0.0
10.00,0.0,0.0,0.0,0.0,-8.971526,0.0,0.0,1.2663344,-0.0
10.01,0.0,0.0,0.0,0.0,-8.958817,0.0,0.0,1.2709417,-0.0
10.02,0.0,0.0,0.0,0.0,-8.946281,0.0,0.0,1.2534796,-0.0
10.03,0.0,0.0,0.0,0.0,-8.933706,0.0,0.0,1.2575572,-0.0
10.04,0.0,0.0,0.0,0.0,-8.921092,0.0,0.0,1.261396,-0.0
10.05,0.0,0.0,0.0,0.0,-8.9084425,0.0,0.0,1.2649958,-0.0
10.06,0.0,0.0,0.0,0.0,-8.895977,0.0,0.0,1.2465256,-0.0
10.07,0.0,0.0,0.0,0.0,-8.883481,0.0,0.0,1.249595,-0.0
10.08,0.0,0.0,0.0,0.0,-8.870956,0.0,0.0,1.2524359,-0.0
10.09,0.0,0.0,0.0,0.0,-8.858406,0.0,0.0,1.2550159,-0.0
10.10,0.0,0.0,0.0,0.0,-8.84605,0.0,0.0,1.2355362,-0.0
10.11,0.0,0.0,0.0,0.0,-8.833674,0.0,0.0,1.2376065,-0.0
10.12,0.0,0.0,0.0,0.0,-8.8212805,0.0,0.0,1.2394264,-0.0
10.13,0.0,0.0,0.0,0.0,-8.80887,0.0,0.0,1.2410064,-0.0
10.14,0.0,0.0,0.0,0.0,-8.796447,0.0,0.0,1.2423466,-0.0
10.15,0.0,0.0,0.0,0.0,-8.784013,0.0,0.0,1.243436,-0.0
10.16,0.0,0.0,0.0,0.0,-8.77157,0.0,0.0,1.2442962,-0.0
10.17,0.0,0.0,0.0,0.0,-8.759121,0.0,0.0,1.2448945,-0.0
10.18,0.0,0.0,0.0,0.0,-8.746886,0.0,0.0,1.2234325,-0.0
10.19,0.0,0.0,0.0,0.0,-8.734652,0.0,0.0,1.223509,-0.0
10.20,0.0,0.0,0.0,0.0,-8.722418,0.0,0.0,1.223356,-0.0
10.21,0.0,0.0,0.0,0.0,-8.710189,0.0,0.0,1.2229406,-0.0
10.22,0.0,0.0,0.0,0.0,-8.697966,0.0,0.0,1.2222955,-0.0
10.23,0.0,0.0,0.0,0.0,-8.685752,0.0,0.0,1.2214098,-0.0
10.24,0.0,0.0,0.0,0.0,-8.67355,0.0,0.0,1.2202613,-0.0
10.25,0.0,0.0,0.0,0.0,-8.661361,0.0,0.0,1.218894,-0.0
10.26,0.0,0.0,0.0,0.0,-8.649188,0.0,0.0,1.2172529,-0.0
10.27,0.0,0.0,0.0,0.0,-8.637034,0.0,0.0,1.2153924,-0.0
10.28,0.0,0.0,0.0,0.0,-8.624902,0.0,0.0,1.2132798,-0.0
10.29,0.0,0.0,0.0,0.0,-8.612793,0.0,0.0,1.2109153,-0.0
10.30,0.0,0.0,0.0,0.0,-8.60071,0.0,0.0,1.2083201,-0.0
10.31,0.0,0.0,0.0,0.0,-8.588437,0.0,0.0,1.2272928,-0.0
10.32,0.0,0.0,0.0,0.0,-8.576195,0.0,0.0,1.224245,-0.0
10.33,0.0,0.0,0.0,0.0,-8.564203,0.0,0.0,1.1991136,-0.0
10.34,0.0,0.0,0.0,0.0,-8.55203,0.0,0.0,1.2173723,-0.0
10.35,0.0,0.0,0.0,0.0,-8.539894,0.0,0.0,1.2135884,-0.0
10.36,0.0,0.0,0.0,0.0,-8.527799,0.0,0.0,1.2095407,-0.0
10.37,0.0,0.0,0.0,0.0,-8.515746,0.0,0.0,1.2052729,-0.0
10.38,0.0,0.0,0.0,0.0,-8.503738,0.0,0.0,1.2007412,-0.0
10.39,0.0,0.0,0.0,0.0,-8.491778,0.0,0.0,1.1959783,-0.0
10.40,0.0,0.0,0.0,0.0,-8.479869,0.0,0.0,1.1909732,-0.0
10.41,0.0,0.0,0.0,0.0,-8.468012,0.0,0.0,1.1857039,-0.0
10.42,0.0,0.0,0.0,0.0,-8.455992,0.0,0.0,1.202034,-0.0
10.43,0.0,0.0,0.0,0.0,-8.444029,0.0,0.0,1.1963209,-0.0
10.44,0.0,0.0,0.0,0.0,-8.432125,0.0,0.0,1.190365,-0.0
10.45,0.0,0.0,0.0,0.0,-8.420283,0.0,0.0,1.1841666,-0.0
10.46,0.0,0.0,0.0,0.0,-8.408506,0.0,0.0,1.1777143,-0.0
10.47,0.0,0.0,0.0,0.0,-8.396578,0.0,0.0,1.1928504,-0.0
10.48,0.0,0.0,0.0,0.0,-8.384718,0.0,0.0,1.1859534,-0.0
10.49,0.0,0.0,0.0,0.0,-8.37293,0.0,0.0,1.1788025,-0.0
10.50,0.0,0.0,0.0,0.0,-8.361216,0.0,0.0,1.1713977,-0.0
10.51,0.0,0.0,0.0,0.0,-8.3493595,0.0,0.0,1.1855915,-0.0
10.52,0.0,0.0,0.0,0.0,-8.337582,0.0,0.0,1.1777409,-0.0
10.53,0.0,0.0,0.0,0.0,-8.325885,0.0,0.0,1.1696472,-0.0
10.54,0.0,0.0,0.0,0.0,-8.314272,0.0,0.0,1.16131,-0.0
10.55,0.0,0.0,0.0,0.0,-8.302526,0.0,0.0,1.1745493,-0.0
10.56,0.0,0.0,0.0,0.0,-8.290869,0.0,0.0,1.165755,-0.0
10.57,0.0,0.0,0.0,0.0,-8.279083,0.0,0.0,1.1785369,-0.0
10.58,0.0,0.0,0.0,0.0,-8.26739,0.0,0.0,1.169285,-0.0
10.59,0.0,0.0,0.0,0.0,-8.255793,0.0,0.0,1.1597894,-0.0
10.60,0.0,0.0,0.0,0.0,-8.244074,0.0,0.0,1.1718699,-0.0
10.61,0.0,0.0,0.0,0.0,-8.232454,0.0,0.0,1.161916,-0.0
10.62,0.0,0.0,0.0,0.0,-8.220937,0.0,0.0,1.1517074,-0.0
10.63,0.0,0.0,0.0,0.0,-8.209306,0.0,0.0,1.1630963,-0.0
10.64,0.0,0.0,0.0,0.0,-8.197782,0.0,0.0,1.15244,-0.0
10.65,0.0,0.0,0.0,0.0,-8.186366,0.0,0.0,1.1415284,-0.0
10.66,0.0,0.0,0.0,0.0,-8.174844,0.0,0.0,1.1522034,-0.0
10.67,0.0,0.0,0.0,0.0,-8.163435,0.0,0.0,1.1408439,-0.0
10.68,0.0,0.0,0.0,0.0,-8.151924,0.0,0.0,1.1510596,-0.0
10.69,0.0,0.0,0.0,0.0,-8.140532,0.0,0.0,1.1392515,-0.0
10.70,0.0,0.0,0.0,0.0,-8.129042,0.0,0.0,1.1490079,-0.0
10.71,0.0,0.0,0.0,0.0,-8.117675,0.0,0.0,1.136729,-0.0
10.72,0.0,0.0,0.0,0.0,-8.106215,0.0,0.0,1.1460364,-0.0
10.73,0.0,0.0,0.0,0.0,-8.094881,0.0,0.0,1.1333086,-0.0
10.74,0.0,0.0,0.0,0.0,-8.08346,0.0,0.0,1.1421449,-0.0
10.75,0.0,0.0,0.0,0.0,-8.071952,0.0,0.0,1.1507877,-0.0
10.76,0.0,0.0,0.0,0.0,-8.060578,0.0,0.0,1.137384,-0.0
10.77,0.0,0.0,0.0,0.0,-8.049123,0.0,0.0,1.145566,-0.0
10.78,0.0,0.0,0.0,0.0,-8.037806,0.0,0.0,1.1317016,-0.0
10.79,0.0,0.0,0.0,0.0,-8.026411,0.0,0.0,1.1394228,-0.0
10.80,0.0,0.0,0.0,0.0,-8.015161,0.0,0.0,1.1250972,-0.0
10.81,0.0,0.0,0.0,0.0,-8.003837,0.0,0.0,1.132357,-0.0
10.82,0.0,0.0,0.0,0.0,-7.992661,0.0,0.0,1.1175808,-0.0
10.83,0.0,0.0,0.0,0.0,-7.981417,0.0,0.0,1.1243899,-0.0
10.84,0.0,0.0,0.0,0.0,-7.9701076,0.0,0.0,1.1309829,-0.0
10.85,0.0,0.0,0.0,0.0,-7.9589524,0.0,0.0,1.1155288,-0.0
10.86,0.0,0.0,0.0,0.0,-7.947736,0.0,0.0,1.1216598,-0.0
10.87,0.0,0.0,0.0,0.0,-7.93646,0.0,0.0,1.1275743,-0.0
10.88,0.0,0.0,0.0,0.0,-7.9253454,0.0,0.0,1.1114634,-0.0
10.89,0.0,0.0,0.0,0.0,-7.9141765,0.0,0.0,1.1169156,-0.0
10.90,0.0,0.0,0.0,0.0,-7.9029546,0.0,0.0,1.1221728,-0.0
10.91,0.0,0.0,0.0,0.0,-7.8919005,0.0,0.0,1.1053824,-0.0
10.92,0.0,0.0,0.0,0.0,-7.880799,0.0,0.0,1.110155,-0.0
10.93,0.0,0.0,0.0,0.0,-7.8696513,0.0,0.0,1.1147325,-0.0
10.94,0.0,0.0,0.0,0.0,-7.858679,0.0,0.0,1.097273,-0.0
10.95,0.0,0.0,0.0,0.0,-7.847665,0.0,0.0,1.101398,-0.0
10.96,0.0,0.0,0.0,0.0,-7.8366117,0.0,0.0,1.1052951,-0.0
10.97,0.0,0.0,0.0,0.0,-7.825522,0.0,0.0,1.1089858,-0.0
10.98,0.0,0.0,0.0,0.0,-7.8143973,0.0,0.0,1.1124703,-0.0
10.99,0.0,0.0,0.0,0.0,-7.803458,0.0,0.0,1.0939064,-0.0
11.00,0.0,0.0,0.0,0.0,-7.792489,0.0,0.0,1.0969266,-0.0
11.01,0.0,0.0,0.0,0.0,-7.7814918,0.0,0.0,1.0997404,-0.0
11.02,0.0,0.0,0.0,0.0,-7.7704687,0.0,0.0,1.1023256,-0.0
11.03,0.0,0.0,0.0,0.0,-7.7596397,0.0,0.0,1.0828841,-0.0
11.04,0.0,0.0,0.0,0.0,-7.74879,0.0,0.0,1.0850155,-0.0
11.05,0.0,0.0,0.0,0.0,-7.7379203,0.0,0.0,1.0869402,-0.0
11.06,0.0,0.0,0.0,0.0,-7.7270336,0.0,0.0,1.0886469,-0.0
11.07,0.0,0.0,0.0,0.0,-7.716132,0.0,0.0,1.0901358,-0.0
11.08,0.0,0.0,0.0,0.0,-7.705218,0.0,0.0,1.0914284,-0.0
11.09,0.0,0.0,0.0,0.0,-7.694293,0.0,0.0,1.0924921,-0.0
11.10,0.0,0.0,0.0,0.0,-7.6833596,0.0,0.0,1.0933485,-0.0
11.11,0.0,0.0,0.0,0.0,-7.672638,0.0,0.0,1.0721666,-0.0
11.12,0.0,0.0,0.0,0.0,-7.6619124,0.0,0.0,1.0725572,-0.0
11.13,0.0,0.0,0.0,0.0,-7.651185,0.0,0.0,1.0727403,-0.0
11.14,0.0,0.0,0.0,0.0,-7.640458,0.0,0.0,1.072705,-0.0
11.15,0.0,0.0,0.0,0.0,-7.6297336,0.0,0.0,1.0724621,-0.0
11.16,0.0,0.0,0.0,0.0,-7.619014,0.0,0.0,1.0720006,-0.0
11.17,0.0,0.0,0.0,0.0,-7.6083007,0.0,0.0,1.0713204,-0.0
11.18,0.0,0.0,0.0,0.0,-7.597596,0.0,0.0,1.0704433,-0.0
11.19,0.0,0.0,0.0,0.0,-7.5869026,0.0,0.0,1.0693365,-0.0
11.20,0.0,0.0,0.0,0.0,-7.5762224,0.0,0.0,1.0680327,-0.0
11.21,0.0,0.0,0.0,0.0,-7.5655575,0.0,0.0,1.06651,-0.0
11.22,0.0,0.0,0.0,0.0,-7.5549097,0.0,0.0,1.0647682,-0.0
11.23,0.0,0.0,0.0,0.0,-7.5442815,0.0,0.0,1.0628182,-0.0
11.24,0.0,0.0,0.0,0.0,-7.533675,0.0,0.0,1.060649,-0.0
11.25,0.0,0.0,0.0,0.0,-7.5230923,0.0,0.0,1.0582716,-0.0
11.26,0.0,0.0,0.0,0.0,-7.5125356,0.0,0.0,1.0556748,-0.0
11.27,0.0,0.0,0.0,0.0,-7.502007,0.0,0.0,1.0528697,-0.0
11.28,0.0,0.0,0.0,0.0,-7.49129,0.0,0.0,1.071676,-0.0
11.29,0.0,0.0,0.0,0.0,-7.4808235,0.0,0.0,1.0466518,-0.0
11.30,0.0,0.0,0.0,0.0,-7.4701734,0.0,0.0,1.06503,-0.0
11.31,0.0,0.0,0.0,0.0,-7.4595594,0.0,0.0,1.0613977,-0.0
11.32,0.0,0.0,0.0,0.0,-7.4489837,0.0,0.0,1.0575672,-0.0
11.33,0.0,0.0,0.0,0.0,-7.4384484,0.0,0.0,1.0535064,-0.0
11.34,0.0,0.0,0.0,0.0,-7.427956,0.0,0.0,1.0492364,-0.0
11.35,0.0,0.0,0.0,0.0,-7.4175086,0.0,0.0,1.0447576,-0.0
11.36,0.0,0.0,0.0,0.0,-7.4071083,0.0,0.0,1.0400478,-0.0
11.37,0.0,0.0,0.0,0.0,-7.3967566,0.0,0.0,1.0351506,-0.0
11.38,0.0,0.0,0.0,0.0,-7.386238,0.0,0.0,1.0518426,-0.0
11.39,0.0,0.0,0.0,0.0,-7.3757725,0.0,0.0,1.0465451,-0.0
11.40,0.0,0.0,0.0,0.0,-7.365362,0.0,0.0,1.0410166,-0.0
11.41,0.0,0.0,0.0,0.0,-7.355009,0.0,0.0,1.0352895,-0.0
11.42,0.0,0.0,0.0,0.0,-7.3447156,0.0,0.0,1.029342,-0.0
11.43,0.0,0.0,0.0,0.0,-7.3344836,0.0,0.0,1.0231742,-0.0
11.44,0.0,0.0,0.0,0.0,-7.324097,0.0,0.0,1.0386279,-0.0
11.45,0.0,0.0,0.0,0.0,-7.3137765,0.0,0.0,1.0320697,-0.0
11.46,0.0,0.0,0.0,0.0,-7.3035235,0.0,0.0,1.025291,-0.0
11.47,0.0,0.0,0.0,0.0,-7.2933407,0.0,0.0,1.0183024,-0.0
11.48,0.0,0.0,0.0,0.0,-7.2830114,0.0,0.0,1.032935,-0.0
11.49,0.0,0.0,0.0,0.0,-7.272756,0.0,0.0,1.0255448,-0.0
11.50,0.0,0.0,0.0,0.0,-7.2625766,0.0,0.0,1.0179555,-0.0
11.51,0.0,0.0,0.0,0.0,-7.252257,0.0,0.0,1.0319654,-0.0
11.52,0.0,0.0,0.0,0.0,-7.2420173,0.0,0.0,1.023974,-0.0
11.53,0.0,0.0,0.0,0.0,-7.2318597,0.0,0.0,1.0157725,-0.0
11.54,0.0,0.0,0.0,0.0,-7.221786,0.0,0.0,1.0073497,-0.0
11.55,0.0,0.0,0.0,0.0,-7.2115808,0.0,0.0,1.0205477,-0.0
11.56,0.0,0.0,0.0,0.0,-7.201463,0.0,0.0,1.0117333,-0.0
11.57,0.0,0.0,0.0,0.0,-7.191218,0.0,0.0,1.0245286,-0.0
11.58,0.0,0.0,0.0,0.0,-7.1810646,0.0,0.0,1.0153221,-0.0
11.59,0.0,0.0,0.0,0.0,-7.1710057,0.0,0.0,1.0058943,-0.0
11.60,0.0,0.0,0.0,0.0,-7.160825,0.0,0.0,1.0180868,-0.0
11.61,0.0,0.0,0.0,0.0,-7.150742,0.0,0.0,1.0082557,-0.0
11.62,0.0,0.0,0.0,0.0,-7.14076,0.0,0.0,0.99822474,-0.0
11.63,0.0,0.0,0.0,0.0,-7.130662,0.0,0.0,1.009803,-0.0
11.64,0.0,0.0,0.0,0.0,-7.1206684,0.0,0.0,0.9993684,-0.0
11.65,0.0,0.0,0.0,0.0,-7.110563,0.0,0.0,1.0105538,-0.0
11.66,0.0,0.0,0.0,0.0,-7.1005654,0.0,0.0,0.99972624,-0.0
11.67,0.0,0.0,0.0,0.0,-7.0906787,0.0,0.0,0.98867667,-0.0
11.68,0.0,0.0,0.0,0.0,-7.080686,0.0,0.0,0.999247,-0.0
11.69,0.0,0.0,0.0,0.0,-7.070808,0.0,0.0,0.987815,-0.0
11.70,0.0,0.0,0.0,0.0,-7.060828,0.0,0.0,0.99798095,-0.0
11.71,0.0,0.0,0.0,0.0,-7.0509667,0.0,0.0,0.9861552,-0.0
11.72,0.0,0.0,0.0,0.0,-7.0410075,0.0,0.0,0.9959274,-0.0
11.73,0.0,0.0,0.0,0.0,-7.0311704,0.0,0.0,0.9836969,-0.0
11.74,0.0,0.0,0.0,0.0,-7.0212398,0.0,0.0,0.9930751,-0.0
11.75,0.0,0.0,0.0,0.0,-7.011435,0.0,0.0,0.9804503,-0.0
11.76,0.0,0.0,0.0,0.0,-7.0015407,0.0,0.0,0.98943424,-0.0
11.77,0.0,0.0,0.0,0.0,-6.991558,0.0,0.0,0.9982353,-0.0
11.78,0.0,0.0,0.0,0.0,-6.9817076,0.0,0.0,0.9850332,-0.0
11.79,0.0,0.0,0.0,0.0,-6.971773,0.0,0.0,0.99345046,-0.0
11.80,0.0,0.0,0.0,0.0,-6.9619746,0.0,0.0,0.97984284,-0.0
11.81,0.0,0.0,0.0,0.0,-6.952096,0.0,0.0,0.9878434,-0.0
11.82,0.0,0.0,0.0,0.0,-6.9423575,0.0,0.0,0.9738516,-0.0
11.83,0.0,0.0,0.0,0.0,-6.932543,0.0,0.0,0.9814681,-0.0
11.84,0.0,0.0,0.0,0.0,-6.922872,0.0,0.0,0.96705925,-0.0
11.85,0.0,0.0,0.0,0.0,-6.9131293,0.0,0.0,0.97428036,-0.0
11.86,0.0,0.0,0.0,0.0,-6.903316,0.0,0.0,0.98131794,-0.0
11.87,0.0,0.0,0.0,0.0,-6.8936524,0.0,0.0,0.9663411,-0.0
11.88,0.0,0.0,0.0,0.0,-6.8839226,0.0,0.0,0.9729721,-0.0
11.89,0.0,0.0,0.0,0.0,-6.8743463,0.0,0.0,0.95761037,-0.0
11.90,0.0,0.0,0.0,0.0,-6.864708,0.0,0.0,0.96384555,-0.0
11.91,0.0,0.0,0.0,0.0,-6.855009,0.0,0.0,0.96989685,-0.0
11.92,0.0,0.0,0.0,0.0,-6.8454695,0.0,0.0,0.95395523,-0.0
11.93,0.0,0.0,0.0,0.0,-6.8358736,0.0,0.0,0.95961034,-0.0
11.94,0.0,0.0,0.0,0.0,-6.826223,0.0,0.0,0.9650925,-0.0
11.95,0.0,0.0,0.0,0.0,-6.816519,0.0,0.0,0.97039056,-0.0
11.96,0.0,0.0,0.0,0.0,-6.806982,0.0,0.0,0.9536735,-0.0
11.97,0.0,0.0,0.0,0.0,-6.797396,0.0,0.0,0.958564,-0.0
11.98,0.0,0.0,0.0,0.0,-6.7877636,0.0,0.0,0.96328115,-0.0
11.99,0.0,0.0,0.0,0.0,-6.7783036,0.0,0.0,0.9460048,-0.0
12.00,0.0,0.0,0.0,0.0,-6.7688003,0.0,0.0,0.9503141,-0.0
12.01,0.0,0.0,0.0,0.0,-6.759256,0.0,0.0,0.9544499,-0.0
12.02,0.0,0.0,0.0,0.0,-6.749672,0.0,0.0,0.95840126,-0.0
12.03,0.0,0.0,0.0,0.0,-6.740268,0.0,0.0,0.9403588,-0.0
12.04,0.0,0.0,0.0,0.0,-6.7308292,0.0,0.0,0.9439019,-0.0
12.05,0.0,0.0,0.0,0.0,-6.7213564,0.0,0.0,0.9472821,-0.0
12.06,0.0,0.0,0.0,0.0,-6.7118516,0.0,0.0,0.95047754,-0.0
12.07,0.0,0.0,0.0,0.0,-6.7023168,0.0,0.0,0.95348835,-0.0
12.08,0.0,0.0,0.0,0.0,-6.6929717,0.0,0.0,0.93448335,-0.0
12.09,0.0,0.0,0.0,0.0,-6.683601,0.0,0.0,0.93709624,-0.0
12.10,0.0,0.0,0.0,0.0,-6.674206,0.0,0.0,0.9395241,-0.0
12.11,0.0,0.0,0.0,0.0,-6.664788,0.0,0.0,0.94177794,-0.0
12.12,0.0,0.0,0.0,0.0,-6.6553493,0.0,0.0,0.9438359,-0.0
12.13,0.0,0.0,0.0,0.0,-6.645892,0.0,0.0,0.9457198,-0.0
12.14,0.0,0.0,0.0,0.0,-6.6366363,0.0,0.0,0.9255983,-0.0
12.15,0.0,0.0,0.0,0.0,-6.6273656,0.0,0.0,0.9270726,-0.0
12.16,0.0,0.0,0.0,0.0,-6.618082,0.0,0.0,0.92837256,-0.0
12.17,0.0,0.0,0.0,0.0,-6.608787,0.0,0.0,0.9294873,-0.0
12.18,0.0,0.0,0.0,0.0,-6.599483,0.0,0.0,0.9304275,-0.0
12.19,0.0,0.0,0.0,0.0,-6.5901713,0.0,0.0,0.9311823,-0.0
12.20,0.0,0.0,0.0,0.0,-6.580854,0.0,0.0,0.9317517,-0.0
12.21,0.0,0.0,0.0,0.0,-6.5715327,0.0,0.0,0.9321356,-0.0
12.22,0.0,0.0,0.0,0.0,-6.562209,0.0,0.0,0.9323448,-0.0
12.23,0.0,0.0,0.0,0.0,-6.5528855,0.0,0.0,0.9323684,-0.0
12.24,0.0,0.0,0.0,0.0,-6.5437818,0.0,0.0,0.91038626,-0.0
12.25,0.0,0.0,0.0,0.0,-6.5344634,0.0,0.0,0.9318304,-0.0
12.26,0.0,0.0,0.0,0.0,-6.5253687,0.0,0.0,0.9094768,-0.0
12.27,0.0,0.0,0.0,0.0,-6.516281,0.0,0.0,0.9087401,-0.0
12.28,0.0,0.0,0.0,0.0,-6.5069847,0.0,0.0,0.9296377,-0.0
12.29,0.0,0.0,0.0,0.0,-6.497917,0.0,0.0,0.90673727,-0.0
12.30,0.0,0.0,0.0,0.0,-6.4888625,0.0,0.0,0.90544283,-0.0
12.31,0.0,0.0,0.0,0.0,-6.4796047,0.0,0.0,0.9257934,-0.0
12.32,0.0,0.0,0.0,0.0,-6.470581,0.0,0.0,0.9023458,-0.0
12.33,0.0,0.0,0.0,0.0,-6.4613576,0.0,0.0,0.92233497,-0.0
12.34,0.0,0.0,0.0,0.0,-6.452154,0.0,0.0,0.9203461,-0.0
12.35,0.0,0.0,0.0,0.0,-6.4431906,0.0,0.0,0.89633983,-0.0
12.36,0.0,0.0,0.0,0.0,-6.4340324,0.0,0.0,0.91579217,-0.0
12.37,0.0,0.0,0.0,0.0,-6.4249,0.0,0.0,0.9132443,-0.0
12.38,0.0,0.0,0.0,0.0,-6.415795,0.0,0.0,0.9105211,-0.0
12.39,0.0,0.0,0.0,0.0,-6.4067187,0.0,0.0,0.9076223,-0.0
12.40,0.0,0.0,0.0,0.0,-6.397673,0.0,0.0,0.90453684,-0.0
12.41,0.0,0.0,0.0,0.0,-6.3886604,0.0,0.0,0.90126497,-0.0
12.42,0.0,0.0,0.0,0.0,-6.3796825,0.0,0.0,0.8978066,-0.0
12.43,0.0,0.0,0.0,0.0,-6.370741,0.0,0.0,0.8941723,-0.0
12.44,0.0,0.0,0.0,0.0,-6.3618374,0.0,0.0,0.89035136,-0.0
12.45,0.0,0.0,0.0,0.0,-6.352974,0.0,0.0,0.88634384,-0.0
12.46,0.0,0.0,0.0,0.0,-6.3441525,0.0,0.0,0.88216025,-0.0
12.47,0.0,0.0,0.0,0.0,-6.3351564,0.0,0.0,0.89961004,-0.0
12.48,0.0,0.0,0.0,0.0,-6.3262053,0.0,0.0,0.89510256,-0.0
12.49,0.0,0.0,0.0,0.0,-6.3173013,0.0,0.0,0.89039737,-0.0
12.50,0.0,0.0,0.0,0.0,-6.308446,0.0,0.0,0.885516,-0.0
12.51,0.0,0.0,0.0,0.0,-6.2996416,0.0,0.0,0.88043684,-0.0
12.52,0.0,0.0,0.0,0.0,-6.2906713,0.0,0.0,0.89701235,-0.0
12.53,0.0,0.0,0.0,0.0,-6.2817554,0.0,0.0,0.8916087,-0.0
12.54,0.0,0.0,0.0,0.0,-6.2728953,0.0,0.0,0.88601786,-0.0
12.55,0.0,0.0,0.0,0.0,-6.264093,0.0,0.0,0.8802507,-0.0
12.56,0.0,0.0,0.0,0.0,-6.25535,0.0,0.0,0.87429625,-0.0
12.57,0.0,0.0,0.0,0.0,-6.2464504,0.0,0.0,0.88998556,-0.0
12.58,0.0,0.0,0.0,0.0,-6.2376137,0.0,0.0,0.88369524,-0.0
12.59,0.0,0.0,0.0,0.0,-6.2288413,0.0,0.0,0.8772285,-0.0
12.60,0.0,0.0,0.0,0.0,-6.2201357,0.0,0.0,0.8705743,-0.0
12.61,0.0,0.0,0.0,0.0,-6.2114983,0.0,0.0,0.86373264,-0.0
12.62,0.0,0.0,0.0,0.0,-6.202713,0.0,0.0,0.87854534,-0.0
12.63,0.0,0.0,0.0,0.0,-6.1939993,0.0,0.0,0.8713673,-0.0
12.64,0.0,0.0,0.0,0.0,-6.185359,0.0,0.0,0.8640126,-0.0
12.65,0.0,0.0,0.0,0.0,-6.176576,0.0,0.0,0.8783012,-0.0
12.66,0.0,0.0,0.0,0.0,-6.16787,0.0,0.0,0.8705989,-0.0
12.67,0.0,0.0,0.0,0.0,-6.1592426,0.0,0.0,0.8627307,-0.0
12.68,0.0,0.0,0.0,0.0,-6.1504774,0.0,0.0,0.8765057,-0.0
12.69,0.0,0.0,0.0,0.0,-6.1417947,0.0,0.0,0.8682896,-0.0
12.70,0.0,0.0,0.0,0.0,-6.133196,0.0,0.0,0.85989654,-0.0
12.71,0.0,0.0,0.0,0.0,-6.1246824,0.0,0.0,0.8513265,-0.0
12.72,0.0,0.0,0.0,0.0,-6.1160383,0.0,0.0,0.86439943,-0.0
12.73,0.0,0.0,0.0,0.0,-6.1074834,0.0,0.0,0.85548115,-0.0
12.74,0.0,0.0,0.0,0.0,-6.098801,0.0,0.0,0.8682167,-0.0
12.75,0.0,0.0,0.0,0.0,-6.0902114,0.0,0.0,0.85897183,-0.0
12.76,0.0,0.0,0.0,0.0,-6.081716,0.0,0.0,0.8495498,-0.0
12.77,0.0,0.0,0.0,0.0,-6.0730987,0.0,0.0,0.86175954,-0.0
12.78,0.0,0.0,0.0,0.0,-6.0645785,0.0,0.0,0.85199964,-0.0
12.79,0.0,0.0,0.0,0.0,-6.056158,0.0,0.0,0.8420515,-0.0
12.80,0.0,0.0,0.0,0.0,-6.047621,0.0,0.0,0.85374606,-0.0
12.81,0.0,0.0,0.0,0.0,-6.039186,0.0,0.0,0.8434707,-0.0
12.82,0.0,0.0,0.0,0.0,-6.0306377,0.0,0.0,0.8548271,-0.0
12.83,0.0,0.0,0.0,0.0,-6.022196,0.0,0.0,0.84421355,-0.0
12.84,0.0,0.0,0.0,0.0,-6.0136433,0.0,0.0,0.85523164,-0.0
12.85,0.0,0.0,0.0,0.0,-6.0052004,0.0,0.0,0.8442797,-0.0
12.86,0.0,0.0,0.0,0.0,-5.9966507,0.0,0.0,0.85498106,-0.0
12.87,0.0,0.0,0.0,0.0,-5.988214,0.0,0.0,0.8436906,-0.0
12.88,0.0,0.0,0.0,0.0,-5.979892,0.0,0.0,0.8322223,-0.0
12.89,0.0,0.0,0.0,0.0,-5.971468,0.0,0.0,0.8423854,-0.0
12.90,0.0,0.0,0.0,0.0,-5.963162,0.0,0.0,0.8305891,-0.0
12.91,0.0,0.0,0.0,0.0,-5.9547577,0.0,0.0,0.84042424,-0.0
12.92,0.0,0.0,0.0,0.0,-5.9462566,0.0,0.0,0.85010904,-0.0
12.93,0.0,0.0,0.0,0.0,-5.9378786,0.0,0.0,0.83782345,-0.0
12.94,0.0,0.0,0.0,0.0,-5.929625,0.0,0.0,0.82534903,-0.0
12.95,0.0,0.0,0.0,0.0,-5.92128,0.0,0.0,0.8345166,-0.0
12.96,0.0,0.0,0.0,0.0,-5.9128447,0.0,0.0,0.84352285,-0.0
12.97,0.0,0.0,0.0,0.0,-5.904539,0.0,0.0,0.8305694,-0.0
12.98,0.0,0.0,0.0,0.0,-5.896147,0.0,0.0,0.8392469,-0.0
12.99,0.0,0.0,0.0,0.0,-5.8878875,0.0,0.0,0.82594293,-0.0
13.00,0.0,0.0,0.0,0.0,-5.8795447,0.0,0.0,0.83429176,-0.0
13.01,0.0,0.0,0.0,0.0,-5.8713384,0.0,0.0,0.8206588,-0.0
13.02,0.0,0.0,0.0,0.0,-5.863052,0.0,0.0,0.8286677,-0.0
13.03,0.0,0.0,0.0,0.0,-5.854905,0.0,0.0,0.8146949,-0.0
13.04,0.0,0.0,0.0,0.0,-5.8466816,0.0,0.0,0.8223637,-0.0
13.05,0.0,0.0,0.0,0.0,-5.8383827,0.0,0.0,0.8298926,-0.0
13.06,0.0,0.0,0.0,0.0,-5.8302283,0.0,0.0,0.8154396,-0.0
13.07,0.0,0.0,0.0,0.0,-5.822002,0.0,0.0,0.82262814,-0.0
13.08,0.0,0.0,0.0,0.0,-5.8137054,0.0,0.0,0.8296549,-0.0
13.09,0.0,0.0,0.0,0.0,-5.805558,0.0,0.0,0.8147104,-0.0
13.10,0.0,0.0,0.0,0.0,-5.797344,0.0,0.0,0.8214183,-0.0
13.11,0.0,0.0,0.0,0.0,-5.789283,0.0,0.0,0.8061442,-0.0
13.12,0.0,0.0,0.0,0.0,-5.781158,0.0,0.0,0.8125005,-0.0
13.13,0.0,0.0,0.0,0.0,-5.7729707,0.0,0.0,0.81871647,-0.0
13.14,0.0,0.0,0.0,0.0,-5.764941,0.0,0.0,0.8029447,-0.0
13.15,0.0,0.0,0.0,0.0,-5.756853,0.0,0.0,0.8088199,-0.0
13.16,0.0,0.0,0.0,0.0,-5.748708,0.0,0.0,0.81454355,-0.0
13.17,0.0,0.0,0.0,0.0,-5.740725,0.0,0.0,0.7982903,-0.0
13.18,0.0,0.0,0.0,0.0,-5.7326884,0.0,0.0,0.80367833,-0.0
13.19,0.0,0.0,0.0,0.0,-5.7245994,0.0,0.0,0.80891484,-0.0
13.20,0.0,0.0,0.0,0.0,-5.7164593,0.0,0.0,0.8139998,-0.0
13.21,0.0,0.0,0.0,0.0,-5.708488,0.0,0.0,0.79710764,-0.0
13.22,0.0,0.0,0.0,0.0,-5.7004695,0.0,0.0,0.80185664,-0.0
13.23,0.0,0.0,0.0,0.0,-5.6924047,0.0,0.0,0.8064538,-0.0
13.24,0.0,0.0,0.0,0.0,-5.6842957,0.0,0.0,0.81089944,-0.0
13.25,0.0,0.0,0.0,0.0,-5.676362,0.0,0.0,0.79336774,-0.0
13.26,0.0,0.0,0.0,0.0,-5.6683874,0.0,0.0,0.7974715,-0.0
13.27,0.0,0.0,0.0,0.0,-5.660373,0.0,0.0,0.8014289,-0.0
13.28,0.0,0.0,0.0,0.0,-5.652321,0.0,0.0,0.80524,-0.0
13.29,0.0,0.0,0.0,0.0,-5.64445,0.0,0.0,0.787068,-0.0
13.30,0.0,0.0,0.0,0.0,-5.6365447,0.0,0.0,0.79053146,-0.0
13.31,0.0,0.0,0.0,0.0,-5.6286063,0.0,0.0,0.7938484,-0.0
13.32,0.0,0.0,0.0,0.0,-5.620636,0.0,0.0,0.79701877,-0.0
13.33,0.0,0.0,0.0,0.0,-5.6126356,0.0,0.0,0.80003154,-0.0
13.34,0.0,0.0,0.0,0.0,-5.604825,0.0,0.0,0.7810668,-0.0
13.35,0.0,0.0,0.0,0.0,-5.5969877,0.0,0.0,0.7837425,-0.0
13.36,0.0,0.0,0.0,0.0,-5.589125,0.0,0.0,0.78626615,-0.0
13.37,0.0,0.0,0.0,0.0,-5.5812387,0.0,0.0,0.7886376,-0.0
13.38,0.0,0.0,0.0,0.0,-5.5733304,0.0,0.0,0.79085666,-0.0
13.39,0.0,0.0,0.0,0.0,-5.565401,0.0,0.0,0.79292893,-0.0
13.40,0.0,0.0,0.0,0.0,-5.557671,0.0,0.0,0.7730178,-0.0
13.41,0.0,0.0,0.0,0.0,-5.5499234,0.0,0.0,0.77474725,-0.0
13.42,0.0,0.0,0.0,0.0,-5.54216,0.0,0.0,0.77632964,-0.0
13.43,0.0,0.0,0.0,0.0,-5.5343823,0.0,0.0,0.77775955,-0.0
13.44,0.0,0.0,0.0,0.0,-5.5265923,0.0,0.0,0.77903163,-0.0
13.45,0.0,0.0,0.0,0.0,-5.5187907,0.0,0.0,0.78015643,-0.0
13.46,0.0,0.0,0.0,0.0,-5.5109797,0.0,0.0,0.78112876,-0.0
13.47,0.0,0.0,0.0,0.0,-5.50316,0.0,0.0,0.78195393,-0.0
13.48,0.0,0.0,0.0,0.0,-5.4953337,0.0,0.0,0.7826209,-0.0
13.49,0.0,0.0,0.0,0.0,-5.4877205,0.0,0.0,0.7613043,-0.0
13.50,0.0,0.0,0.0,0.0,-5.480104,0.0,0.0,0.7616333,-0.0
13.51,0.0,0.0,0.0,0.0,-5.472486,0.0,0.0,0.761815,-0.0
13.52,0.0,0.0,0.0,0.0,-5.4648676,0.0,0.0,0.7618384,-0.0
13.53,0.0,0.0,0.0,0.0,-5.4572506,0.0,0.0,0.761709,-0.0
13.54,0.0,0.0,0.0,0.0,-5.4496365,0.0,0.0,0.7614267,-0.0
13.55,0.0,0.0,0.0,0.0,-5.4420266,0.0,0.0,0.7609969,-0.0
13.56,0.0,0.0,0.0,0.0,-5.4344225,0.0,0.0,0.76041967,-0.0
13.57,0.0,0.0,0.0,0.0,-5.4266076,0.0,0.0,0.7815094,-0.0
13.58,0.0,0.0,0.0,0.0,-5.419019,0.0,0.0,0.7588277,-0.0
13.59,0.0,0.0,0.0,0.0,-5.4114413,0.0,0.0,0.75778586,-0.0
13.60,0.0,0.0,0.0,0.0,-5.4038754,0.0,0.0,0.75659645,-0.0
13.61,0.0,0.0,0.0,0.0,-5.3963227,0.0,0.0,0.7552484,-0.0
13.62,0.0,0.0,0.0,0.0,-5.388567,0.0,0.0,0.7755782,-0.0
13.63,0.0,0.0,0.0,0.0,-5.381046,0.0,0.0,0.75213623,-0.0
13.64,0.0,0.0,0.0,0.0,-5.3733244,0.0,0.0,0.772165,-0.0
13.65,0.0,0.0,0.0,0.0,-5.3658404,0.0,0.0,0.74841654,-0.0
13.66,0.0,0.0,0.0,0.0,-5.358159,0.0,0.0,0.7681387,-0.0
13.67,0.0,0.0,0.0,0.0,-5.3505,0.0,0.0,0.7659145,-0.0
13.68,0.0,0.0,0.0,0.0,-5.3428645,0.0,0.0,0.7635369,-0.0
13.69,0.0,0.0,0.0,0.0,-5.3354726,0.0,0.0,0.7391804,-0.0
13.70,0.0,0.0,0.0,0.0,-5.32789,0.0,0.0,0.75828904,-0.0
13.71,0.0,0.0,0.0,0.0,-5.3203354,0.0,0.0,0.7554511,-0.0
13.72,0.0,0.0,0.0,0.0,-5.312811,0.0,0.0,0.7524705,-0.0
13.73,0.0,0.0,0.0,0.0,-5.305318,0.0,0.0,0.7493255,-0.0
13.74,0.0,0.0,0.0,0.0,-5.2978578,0.0,0.0,0.74603236,-0.0
13.75,0.0,0.0,0.0,0.0,-5.290432,0.0,0.0,0.7425856,-0.0
13.76,0.0,0.0,0.0,0.0,-5.283042,0.0,0.0,0.7389851,-0.0
13.77,0.0,0.0,0.0,0.0,-5.2756896,0.0,0.0,0.7352365,-0.0
13.78,0.0,0.0,0.0,0.0,-5.2683764,0.0,0.0,0.7313341,-0.0
13.79,0.0,0.0,0.0,0.0,-5.2608852,0.0,0.0,0.74910355,-0.0
13.80,0.0,0.0,0.0,0.0,-5.253436,0.0,0.0,0.7449259,-0.0
13.81,0.0,0.0,0.0,0.0,-5.24603,0.0,0.0,0.74060005,-0.0
13.82,0.0,0.0,0.0,0.0,-5.238669,0.0,0.0,0.7361148,-0.0
13.83,0.0,0.0,0.0,0.0,-5.231354,0.0,0.0,0.73148125,-0.0
13.84,0.0,0.0,0.0,0.0,-5.224087,0.0,0.0,0.72669905,-0.0
13.85,0.0,0.0,0.0,0.0,-5.2166514,0.0,0.0,0.7435831,-0.0
13.86,0.0,0.0,0.0,0.0,-5.209266,0.0,0.0,0.73852,-0.0
13.87,0.0,0.0,0.0,0.0,-5.201933,0.0,0.0,0.73331374,-0.0
13.88,0.0,0.0,0.0,0.0,-5.1946535,0.0,0.0,0.72794807,-0.0
13.89,0.0,0.0,0.0,0.0,-5.1874294,0.0,0.0,0.72242814,-0.0
13.90,0.0,0.0,0.0,0.0,-5.1800437,0.0,0.0,0.7385852,-0.0
13.91,0.0,0.0,0.0,0.0,-5.1727157,0.0,0.0,0.73280036,-0.0
13.92,0.0,0.0,0.0,0.0,-5.165447,0.0,0.0,0.72685593,-0.0
13.93,0.0,0.0,0.0,0.0,-5.15824,0.0,0.0,0.7207572,-0.0
13.94,0.0,0.0,0.0,0.0,-5.1508765,0.0,0.0,0.7363353,-0.0
13.95,0.0,0.0,0.0,0.0,-5.143577,0.0,0.0,0.7299658,-0.0
13.96,0.0,0.0,0.0,0.0,-5.1363425,0.0,0.0,0.723442,-0.0
13.97,0.0,0.0,0.0,0.0,-5.1291747,0.0,0.0,0.71676946,-0.0
13.98,0.0,0.0,0.0,0.0,-5.122075,0.0,0.0,0.70994246,-0.0
13.99,0.0,0.0,0.0,0.0,-5.114827,0.0,0.0,0.72478664,-0.0
14.00,0.0,0.0,0.0,0.0,-5.1076503,0.0,0.0,0.71768856,-0.0
14.01,0.0,0.0,0.0,0.0,-5.100546,0.0,0.0,0.71043056,-0.0
14.02,0.0,0.0,0.0,0.0,-5.0932975,0.0,0.0,0.7248546,-0.0
14.03,0.0,0.0,0.0,0.0,-5.0861244,0.0,0.0,0.7173253,-0.0
14.04,0.0,0.0,0.0,0.0,-5.079028,0.0,0.0,0.7096469,-0.0
14.05,0.0,0.0,0.0,0.0,-5.0717916,0.0,0.0,0.7236395,-0.0
14.06,0.0,0.0,0.0,0.0,-5.064635,0.0,0.0,0.71568424,-0.0
14.07,0.0,0.0,0.0,0.0,-5.057559,0.0,0.0,0.70758516,-0.0
14.08,0.0,0.0,0.0,0.0,-5.0503473,0.0,0.0,0.7211515,-0.0
14.09,0.0,0.0,0.0,0.0,-5.0432196,0.0,0.0,0.71277535,-0.0
14.10,0.0,0.0,0.0,0.0,-5.036177,0.0,0.0,0.70423895,-0.0
14.11,0.0,0.0,0.0,0.0,-5.029003,0.0,0.0,0.71737885,-0.0
14.12,0.0,0.0,0.0,0.0,-5.0219173,0.0,0.0,0.708576,-0.0
14.13,0.0,0.0,0.0,0.0,-5.014921,0.0,0.0,0.69961846,-0.0
14.14,0.0,0.0,0.0,0.0,-5.0077977,0.0,0.0,0.71233153,-0.0
14.15,0.0,0.0,0.0,0.0,-5.0007668,0.0,0.0,0.7030964,-0.0
14.16,0.0,0.0,0.0,0.0,-4.9938297,0.0,0.0,0.6937119,-0.0
14.17,0.0,0.0,0.0,0.0,-4.9867697,0.0,0.0,0.7059979,-0.0
14.18,0.0,0.0,0.0,0.0,-4.9798064,0.0,0.0,0.69634104,-0.0
14.19,0.0,0.0,0.0,0.0,-4.972723,0.0,0.0,0.7083548,-0.0
14.20,0.0,0.0,0.0,0.0,-4.965739,0.0,0.0,0.69842553,-0.0
14.21,0.0,0.0,0.0,0.0,-4.9588556,0.0,0.0,0.68833584,-0.0
14.22,0.0,0.0,0.0,0.0,-4.9518566,0.0,0.0,0.6999221,-0.0
14.23,0.0,0.0,0.0,0.0,-4.944961,0.0,0.0,0.6895652,-0.0
14.24,0.0,0.0,0.0,0.0,-4.9379525,0.0,0.0,0.7008788,-0.0
14.25,0.0,0.0,0.0,0.0,-4.9310503,0.0,0.0,0.6902438,-0.0
14.26,0.0,0.0,0.0,0.0,-4.9240375,0.0,0.0,0.70127916,-0.0
14.27,0.0,0.0,0.0,0.0,-4.917134,0.0,0.0,0.6903768,-0.0
14.28,0.0,0.0,0.0,0.0,-4.910341,0.0,0.0,0.6793138,-0.0
14.29,0.0,0.0,0.0,0.0,-4.9034414,0.0,0.0,0.6899265,-0.0
14.30,0.0,0.0,0.0,0.0,-4.896437,0.0,0.0,0.70042145,-0.0
14.31,0.0,0.0,0.0,0.0,-4.8895473,0.0,0.0,0.68896216,-0.0
14.32,0.0,0.0,0.0,0.0,-4.882774,0.0,0.0,0.67735845,-0.0
14.33,0.0,0.0,0.0,0.0,-4.8759,0.0,0.0,0.68741953,-0.0
14.34,0.0,0.0,0.0,0.0,-4.8691444,0.0,0.0,0.6755371,-0.0
14.35,0.0,0.0,0.0,0.0,-4.8622913,0.0,0.0,0.6853249,-0.0
14.36,0.0,0.0,0.0,0.0,-4.8553414,0.0,0.0,0.6950001,-0.0
14.37,0.0,0.0,0.0,0.0,-4.848514,0.0,0.0,0.68272096,-0.0
14.38,0.0,0.0,0.0,0.0,-4.841593,0.0,0.0,0.6921173,-0.0
14.39,0.0,0.0,0.0,0.0,-4.834797,0.0,0.0,0.67956454,-0.0
14.40,0.0,0.0,0.0,0.0,-4.82791,0.0,0.0,0.68868726,-0.0
14.41,0.0,0.0,0.0,0.0,-4.8211513,0.0,0.0,0.6758609,-0.0
14.42,0.0,0.0,0.0,0.0,-4.8143044,0.0,0.0,0.68470997,-0.0
14.43,0.0,0.0,0.0,0.0,-4.807588,0.0,0.0,0.6716099,-0.0
14.44,0.0,0.0,0.0,0.0,-4.800786,0.0,0.0,0.6801851,-0.0
14.45,0.0,0.0,0.0,0.0,-4.794118,0.0,0.0,0.6668056,-0.0
14.46,0.0,0.0,0.0,0.0,-4.787367,0.0,0.0,0.675107,-0.0
14.47,0.0,0.0,0.0,0.0,-4.780752,0.0,0.0,0.661459,-0.0
14.48,0.0,0.0,0.0,0.0,-4.7740574,0.0,0.0,0.66948086,-0.0
14.49,0.0,0.0,0.0,0.0,-4.7672834,0.0,0.0,0.6773843,-0.0
14.50,0.0,0.0,0.0,0.0,-4.76065,0.0,0.0,0.6633384,-0.0
14.51,0.0,0.0,0.0,0.0,-4.7539406,0.0,0.0,0.6709677,-0.0
14.52,0.0,0.0,0.0,0.0,-4.7471557,0.0,0.0,0.67847854,-0.0
14.53,0.0,0.0,0.0,0.0,-4.740515,0.0,0.0,0.66403985,-0.0
14.54,0.0,0.0,0.0,0.0,-4.7338023,0.0,0.0,0.6712709,-0.0
14.55,0.0,0.0,0.0,0.0,-4.7272367,0.0,0.0,0.65655786,-0.0
14.56,0.0,0.0,0.0,0.0,-4.7206016,0.0,0.0,0.6635144,-0.0
14.57,0.0,0.0,0.0,0.0,-4.713898,0.0,0.0,0.67035234,-0.0
14.58,0.0,0.0,0.0,0.0,-4.7073455,0.0,0.0,0.6552461,-0.0
14.59,0.0,0.0,0.0,0.0,-4.7007275,0.0,0.0,0.661804,-0.0
14.60,0.0,0.0,0.0,0.0,-4.694045,0.0,0.0,0.6682486,-0.0
14.61,0.0,0.0,0.0,0.0,-4.6875176,0.0,0.0,0.6527435,-0.0
14.62,0.0,0.0,0.0,0.0,-4.6809287,0.0,0.0,0.6589079,-0.0
14.63,0.0,0.0,0.0,0.0,-4.674279,0.0,0.0,0.66495353,-0.0
14.64,0.0,0.0,0.0,0.0,-4.6677885,0.0,0.0,0.64905477,-0.0
14.65,0.0,0.0,0.0,0.0,-4.66124,0.0,0.0,0.65482545,-0.0
14.66,0.0,0.0,0.0,0.0,-4.6546354,0.0,0.0,0.6604718,-0.0
14.67,0.0,0.0,0.0,0.0,-4.648194,0.0,0.0,0.64417374,-0.0
14.68,0.0,0.0,0.0,0.0,-4.6416984,0.0,0.0,0.64955044,-0.0
14.69,0.0,0.0,0.0,0.0,-4.6351504,0.0,0.0,0.65480274,-0.0
14.70,0.0,0.0,0.0,0.0,-4.628551,0.0,0.0,0.65994155,-0.0
14.71,0.0,0.0,0.0,0.0,-4.62212,0.0,0.0,0.64311945,-0.0
14.72,0.0,0.0,0.0,0.0,-4.61564,0.0,0.0,0.6479775,-0.0
14.73,0.0,0.0,0.0,0.0,-4.609113,0.0,0.0,0.6527164,-0.0
14.74,0.0,0.0,0.0,0.0,-4.60254,0.0,0.0,0.6573309,-0.0
14.75,0.0,0.0,0.0,0.0,-4.59614,0.0,0.0,0.64000064,-0.0
14.76,0.0,0.0,0.0,0.0,-4.5896964,0.0,0.0,0.64433956,-0.0
14.77,0.0,0.0,0.0,0.0,-4.583211,0.0,0.0,0.6485593,-0.0
14.78,0.0,0.0,0.0,0.0,-4.5766845,0.0,0.0,0.6526544,-0.0
14.79,0.0,0.0,0.0,0.0,-4.5703363,0.0,0.0,0.6348048,-0.0
14.80,0.0,0.0,0.0,0.0,-4.56395,0.0,0.0,0.6386296,-0.0
14.81,0.0,0.0,0.0,0.0,-4.5575266,0.0,0.0,0.6423243,-0.0
14.82,0.0,0.0,0.0,0.0,-4.5510674,0.0,0.0,0.6459106,-0.0
14.83,0.0,0.0,0.0,0.0,-4.544574,0.0,0.0,0.6493666,-0.0
14.84,0.0,0.0,0.0,0.0,-4.538265,0.0,0.0,0.63087773,-0.0
14.85,0.0,0.0,0.0,0.0,-4.5319247,0.0,0.0,0.6340633,-0.0
14.86,0.0,0.0,0.0,0.0,-4.5255537,0.0,0.0,0.637124,-0.0
14.87,0.0,0.0,0.0,0.0,-4.519153,0.0,0.0,0.64005977,-0.0
14.88,0.0,0.0,0.0,0.0,-4.5127244,0.0,0.0,0.6428815,-0.0
14.89,0.0,0.0,0.0,0.0,-4.506487,0.0,0.0,0.62375283,-0.0
14.90,0.0,0.0,0.0,0.0,-4.500224,0.0,0.0,0.626293,-0.0
14.91,0.0,0.0,0.0,0.0,-4.493937,0.0,0.0,0.6287191,-0.0
14.92,0.0,0.0,0.0,0.0,-4.487627,0.0,0.0,0.6310201,-0.0
14.93,0.0,0.0,0.0,0.0,-4.481295,0.0,0.0,0.63319606,-0.0
14.94,0.0,0.0,0.0,0.0,-4.4749427,0.0,0.0,0.6352579,-0.0
14.95,0.0,0.0,0.0,0.0,-4.4685707,0.0,0.0,0.63718915,-0.0
14.96,0.0,0.0,0.0,0.0,-4.4621806,0.0,0.0,0.63900614,-0.0
14.97,0.0,0.0,0.0,0.0,-4.4559917,0.0,0.0,0.6188725,-0.0
14.98,0.0,0.0,0.0,0.0,-4.4497876,0.0,0.0,0.6204076,-0.0
14.99,0.0,0.0,0.0,0.0,-4.443569,0.0,0.0,0.6218284,-0.0
15.00,0.0,0.0,0.0,0.0,-4.437338,0.0,0.0,0.6231239,-0.0
15.01,0.0,0.0,0.0,0.0,-4.4310946,0.0,0.0,0.6242996,-0.0
15.02,0.0,0.0,0.0,0.0,-4.424841,0.0,0.0,0.62535006,-0.0
15.03,0.0,0.0,0.0,0.0,-4.418578,0.0,0.0,0.62628067,-0.0
15.04,0.0,0.0,0.0,0.0,-4.4123073,0.0,0.0,0.62709135,-0.0
15.05,0.0,0.0,0.0,0.0,-4.406029,0.0,0.0,0.62778217,-0.0
15.06,0.0,0.0,0.0,0.0,-4.399746,0.0,0.0,0.6283476,-0.0
15.07,0.0,0.0,0.0,0.0,-4.3936763,0.0,0.0,0.6069675,-0.0
15.08,0.0,0.0,0.0,0.0,-4.3876038,0.0,0.0,0.607256,-0.0
15.09,0.0,0.0,0.0,0.0,-4.3815293,0.0,0.0,0.6074245,-0.0
15.10,0.0,0.0,0.0,0.0,-4.3754544,0.0,0.0,0.607473,-0.0
15.11,0.0,0.0,0.0,0.0,-4.3693805,0.0,0.0,0.60739595,-0.0
15.12,0.0,0.0,0.0,0.0,-4.36309,0.0,0.0,0.6290244,-0.0
15.13,0.0,0.0,0.0,0.0,-4.357021,0.0,0.0,0.6069132,-0.0
15.14,0.0,0.0,0.0,0.0,-4.350956,0.0,0.0,0.6064759,-0.0
15.15,0.0,0.0,0.0,0.0,-4.344897,0.0,0.0,0.60590756,-0.0
15.16,0.0,0.0,0.0,0.0,-4.338845,0.0,0.0,0.6052245,-0.0
15.17,0.0,0.0,0.0,0.0,-4.3325825,0.0,0.0,0.62625223,-0.0
15.18,0.0,0.0,0.0,0.0,-4.326547,0.0,0.0,0.6035238,-0.0
15.19,0.0,0.0,0.0,0.0,-4.3205223,0.0,0.0,0.60247463,-0.0
15.20,0.0,0.0,0.0,0.0,-4.3145094,0.0,0.0,0.6013107,-0.0
15.21,0.0,0.0,0.0,0.0,-4.308291,0.0,0.0,0.62184656,-0.0
15.22,0.0,0.0,0.0,0.0,-4.3023047,0.0,0.0,0.5986316,-0.0
15.23,0.0,0.0,0.0,0.0,-4.2961154,0.0,0.0,0.6189268,-0.0
15.24,0.0,0.0,0.0,0.0,-4.2899423,0.0,0.0,0.6173022,-0.0
15.25,0.0,0.0,0.0,0.0,-4.284005,0.0,0.0,0.59373164,-0.0
15.26,0.0,0.0,0.0,0.0,-4.2778687,0.0,0.0,0.6136548,-0.0
15.27,0.0,0.0,0.0,0.0,-4.271752,0.0,0.0,0.61166894,-0.0
15.28,0.0,0.0,0.0,0.0,-4.2656565,0.0,0.0,0.6095573,-0.0
15.29,0.0,0.0,0.0,0.0,-4.2595835,0.0,0.0,0.6073196,-0.0
15.30,0.0,0.0,0.0,0.0,-4.253534,0.0,0.0,0.60496694,-0.0
15.31,0.0,0.0,0.0,0.0,-4.247509,0.0,0.0,0.6024828,-0.0
15.32,0.0,0.0,0.0,0.0,-4.24151,0.0,0.0,0.5998891,-0.0
15.33,0.0,0.0,0.0,0.0,-4.2355385,0.0,0.0,0.597164,-0.0
15.34,0.0,0.0,0.0,0.0,-4.229595,0.0,0.0,0.5943183,-0.0
15.35,0.0,0.0,0.0,0.0,-4.2236814,0.0,0.0,0.5913574,-0.0
15.36,0.0,0.0,0.0,0.0,-4.2177987,0.0,0.0,0.588265,-0.0
15.37,0.0,0.0,0.0,0.0,-4.211948,0.0,0.0,0.5850575,-0.0
15.38,0.0,0.0,0.0,0.0,-4.2061305,0.0,0.0,0.58172387,-0.0
15.39,0.0,0.0,0.0,0.0,-4.2001295,0.0,0.0,0.60009503,-0.0
15.40,0.0,0.0,0.0,0.0,-4.194164,0.0,0.0,0.59655136,-0.0
15.41,0.0,0.0,0.0,0.0,-4.188235,0.0,0.0,0.592887,-0.0
15.42,0.0,0.0,0.0,0.0,-4.182344,0.0,0.0,0.58910185,-0.0
15.43,0.0,0.0,0.0,0.0,-4.176492,0.0,0.0,0.58519053,-0.0
15.44,0.0,0.0,0.0,0.0,-4.1706805,0.0,0.0,0.58115846,-0.0
15.45,0.0,0.0,0.0,0.0,-4.1649103,0.0,0.0,0.57700557,-0.0
15.46,0.0,0.0,0.0,0.0,-4.1589646,0.0,0.0,0.59455734,-0.0
15.47,0.0,0.0,0.0,0.0,-4.153063,0.0,0.0,0.5901887,-0.0
15.48,0.0,0.0,0.0,0.0,-4.147206,0.0,0.0,0.58570457,-0.0
15.49,0.0,0.0,0.0,0.0,-4.141395,0.0,0.0,0.58109415,-0.0
15.50,0.0,0.0,0.0,0.0,-4.1356316,0.0,0.0,0.5763628,-0.0
15.51,0.0,0.0,0.0,0.0,-4.1299167,0.0,0.0,0.57151055,-0.0
15.52,0.0,0.0,0.0,0.0,-4.124033,0.0,0.0,0.58835745,-0.0
15.53,0.0,0.0,0.0,0.0,-4.1182,0.0,0.0,0.5832946,-0.0
15.54,0.0,0.0,0.0,0.0,-4.1124187,0.0,0.0,0.5781053,-0.0
15.55,0.0,0.0,0.0,0.0,-4.106691,0.0,0.0,0.57279503,-0.0
15.56,0.0,0.0,0.0,0.0,-4.1010175,0.0,0.0,0.56736374,-0.0
15.57,0.0,0.0,0.0,0.0,-4.095181,0.0,0.0,0.5836369,-0.0
15.58,0.0,0.0,0.0,0.0,-4.0894012,0.0,0.0,0.5779893,-0.0
15.59,0.0,0.0,0.0,0.0,-4.083679,0.0,0.0,0.57222605,-0.0
15.60,0.0,0.0,0.0,0.0,-4.078016,0.0,0.0,0.56633633,-0.0
15.61,0.0,0.0,0.0,0.0,-4.072194,0.0,0.0,0.58215094,-0.0
15.62,0.0,0.0,0.0,0.0,-4.0664334,0.0,0.0,0.5760556,-0.0
15.63,0.0,0.0,0.0,0.0,-4.060735,0.0,0.0,0.5698337,-0.0
15.64,0.0,0.0,0.0,0.0,-4.0551004,0.0,0.0,0.56347966,-0.0
15.65,0.0,0.0,0.0,0.0,-4.049312,0.0,0.0,0.5788409,-0.0
15.66,0.0,0.0,0.0,0.0,-4.043589,0.0,0.0,0.5722921,-0.0
15.67,0.0,0.0,0.0,0.0,-4.037933,0.0,0.0,0.56561106,-0.0
15.68,0.0,0.0,0.0,0.0,-4.032345,0.0,0.0,0.55880344,-0.0
15.69,0.0,0.0,0.0,0.0,-4.0266075,0.0,0.0,0.5737109,-0.0
15.70,0.0,0.0,0.0,0.0,-4.020941,0.0,0.0,0.56669194,-0.0
15.71,0.0,0.0,0.0,0.0,-4.015345,0.0,0.0,0.559557,-0.0
15.72,0.0,0.0,0.0,0.0,-4.009822,0.0,0.0,0.5523009,-0.0
15.73,0.0,0.0,0.0,0.0,-4.004154,0.0,0.0,0.56674886,-0.0
15.74,0.0,0.0,0.0,0.0,-3.9985614,0.0,0.0,0.5592757,-0.0
15.75,0.0,0.0,0.0,0.0,-3.9930446,0.0,0.0,0.55168116,-0.0
15.76,0.0,0.0,0.0,0.0,-3.9873867,0.0,0.0,0.5657908,-0.0
15.77,0.0,0.0,0.0,0.0,-3.9818068,0.0,0.0,0.5579846,-0.0
15.78,0.0,0.0,0.0,0.0,-3.9760878,0.0,0.0,0.57188797,-0.0
15.79,0.0,0.0,0.0,0.0,-3.9704492,0.0,0.0,0.56387,-0.0
15.80,0.0,0.0,0.0,0.0,-3.964892,0.0,0.0,0.5557307,-0.0
15.81,0.0,0.0,0.0,0.0,-3.959417,0.0,0.0,0.5474698,-0.0
15.82,0.0,0.0,0.0,0.0,-3.953808,0.0,0.0,0.56091297,-0.0
15.83,0.0,0.0,0.0,0.0,-3.9482837,0.0,0.0,0.5524294,-0.0
15.84,0.0,0.0,0.0,0.0,-3.942627,0.0,0.0,0.565666,-0.0
15.85,0.0,0.0,0.0,0.0,-3.9370573,0.0,0.0,0.5569813,-0.0
15.86,0.0,0.0,0.0,0.0,-3.9315755,0.0,0.0,0.54816955,-0.0
15.87,0.0,0.0,0.0,0.0,-3.9259648,0.0,0.0,0.56106174,-0.0
15.88,0.0,0.0,0.0,0.0,-3.9204445,0.0,0.0,0.55204344,-0.0
15.89,0.0,0.0,0.0,0.0,-3.9150155,0.0,0.0,0.5428925,-0.0
15.90,0.0,0.0,0.0,0.0,-3.9094608,0.0,0.0,0.5554564,-0.0
15.91,0.0,0.0,0.0,0.0,-3.9039998,0.0,0.0,0.54609877,-0.0
15.92,0.0,0.0,0.0,0.0,-3.8984153,0.0,0.0,0.558445,-0.0
15.93,0.0,0.0,0.0,0.0,-3.8929267,0.0,0.0,0.54887503,-0.0
15.94,0.0,0.0,0.0,0.0,-3.8875349,0.0,0.0,0.53918344,-0.0
15.95,0.0,0.0,0.0,0.0,-3.8820229,0.0,0.0,0.55119556,-0.0
15.96,0.0,0.0,0.0,0.0,-3.87661,0.0,0.0,0.5412861,-0.0
15.97,0.0,0.0,0.0,0.0,-3.8710792,0.0,0.0,0.55308586,-0.0
15.98,0.0,0.0,0.0,0.0,-3.8656495,0.0,0.0,0.54296935,-0.0
15.99,0.0,0.0,0.0,0.0,-3.8603222,0.0,0.0,0.53273106,-0.0
16.00,0.0,0.0,0.0,0.0,-3.8548803,0.0,0.0,0.54419106,-0.0
16.01,0.0,0.0,0.0,0.0,-3.849543,0.0,0.0,0.53373474,-0.0
16.02,0.0,0.0,0.0,0.0,-3.8440933,0.0,0.0,0.54498756,-0.0
16.03,0.0,0.0,0.0,0.0,-3.8387501,0.0,0.0,0.5343186,-0.0
16.04,0.0,0.0,0.0,0.0,-3.8332965,0.0,0.0,0.5453588,-0.0
16.05,0.0,0.0,0.0,0.0,-3.8279517,0.0,0.0,0.53447706,-0.0
16.06,0.0,0.0,0.0,0.0,-3.8224986,0.0,0.0,0.54530436,-0.0
16.07,0.0,0.0,0.0,0.0,-3.8171563,0.0,0.0,0.53421533,-0.0
16.08,0.0,0.0,0.0,0.0,-3.811708,0.0,0.0,0.5448244,-0.0
16.09,0.0,0.0,0.0,0.0,-3.8063726,0.0,0.0,0.5335225,-0.0
16.10,0.0,0.0,0.0,0.0,-3.8009334,0.0,0.0,0.5439241,-0.0
16.11,0.0,0.0,0.0,0.0,-3.7956095,0.0,0.0,0.53239834,-0.0
16.12,0.0,0.0,0.0,0.0,-3.790402,0.0,0.0,0.520756,-0.0
16.13,0.0,0.0,0.0,0.0,-3.7850938,0.0,0.0,0.53082263,-0.0
16.14,0.0,0.0,0.0,0.0,-3.779686,0.0,0.0,0.54079276,-0.0
16.15,0.0,0.0,0.0,0.0,-3.7743974,0.0,0.0,0.52885175,-0.0
16.16,0.0,0.0,0.0,0.0,-3.7690113,0.0,0.0,0.5386142,-0.0
16.17,0.0,0.0,0.0,0.0,-3.7637467,0.0,0.0,0.5264546,-0.0
16.18,0.0,0.0,0.0,0.0,-3.7583866,0.0,0.0,0.5360039,-0.0
16.19,0.0,0.0,0.0,0.0,-3.7531502,0.0,0.0,0.5236311,-0.0
16.20,0.0,0.0,0.0,0.0,-3.7478206,0.0,0.0,0.5329671,-0.0
16.21,0.0,0.0,0.0,0.0,-3.7426167,0.0,0.0,0.52038634,-0.0
16.22,0.0,0.0,0.0,0.0,-3.7373216,0.0,0.0,0.52949816,-0.0
16.23,0.0,0.0,0.0,0.0,-3.7321546,0.0,0.0,0.51670414,-0.0
16.24,0.0,0.0,0.0,0.0,-3.7268984,0.0,0.0,0.525608,-0.0
16.25,0.0,0.0,0.0,0.0,-3.7217724,0.0,0.0,0.51260597,-0.0
16.26,0.0,0.0,0.0,0.0,-3.7165594,0.0,0.0,0.5212963,-0.0
16.27,0.0,0.0,0.0,0.0,-3.7112603,0.0,0.0,0.5299009,-0.0
16.28,0.0,0.0,0.0,0.0,-3.7060945,0.0,0.0,0.5165885,-0.0
16.29,0.0,0.0,0.0,0.0,-3.7008448,0.0,0.0,0.52497405,-0.0
16.30,0.0,0.0,0.0,0.0,-3.6957302,0.0,0.0,0.51144814,-0.0
16.31,0.0,0.0,0.0,0.0,-3.6905339,0.0,0.0,0.5196255,-0.0
16.32,0.0,0.0,0.0,0.0,-3.6852567,0.0,0.0,0.5277169,-0.0
16.33,0.0,0.0,0.0,0.0,-3.6801178,0.0,0.0,0.51388586,-0.0
16.34,0.0,0.0,0.0,0.0,-3.6749003,0.0,0.0,0.5217581,-0.0
16.35,0.0,0.0,0.0,0.0,-3.6698232,0.0,0.0,0.5077133,-0.0
16.36,0.0,0.0,0.0,0.0,-3.6646695,0.0,0.0,0.51537174,-0.0
16.37,0.0,0.0,0.0,0.0,-3.65944,0.0,0.0,0.52293867,-0.0
16.38,0.0,0.0,0.0,0.0,-3.654354,0.0,0.0,0.50859404,-0.0
16.39,0.0,0.0,0.0,0.0,-3.6491947,0.0,0.0,0.51594704,-0.0
16.40,0.0,0.0,0.0,0.0,-3.6439626,0.0,0.0,0.523214,-0.0
16.41,0.0,0.0,0.0,0.0,-3.638877,0.0,0.0,0.5085639,-0.0
16.42,0.0,0.0,0.0,0.0,-3.6337209,0.0,0.0,0.51561135,-0.0
16.43,0.0,0.0,0.0,0.0,-3.6287134,0.0,0.0,0.5007417,-0.0
16.44,0.0,0.0,0.0,0.0,-3.6236377,0.0,0.0,0.50758064,-0.0
16.45,0.0,0.0,0.0,0.0,-3.6184945,0.0,0.0,0.51432794,-0.0
16.46,0.0,0.0,0.0,0.0,-3.613503,0.0,0.0,0.49916348,-0.0
16.47,0.0,0.0,0.0,0.0,-3.6084461,0.0,0.0,0.50569665,-0.0
16.48,0.0,0.0,0.0,0.0,-3.6033247,0.0,0.0,0.5121381,-0.0
16.49,0.0,0.0,0.0,0.0,-3.598358,0.0,0.0,0.49666232,-0.0
16.50,0.0,0.0,0.0,0.0,-3.593329,0.0,0.0,0.5028896,-0.0
16.51,0.0,0.0,0.0,0.0,-3.5882387,0.0,0.0,0.50903046,-0.0
16.52,0.0,0.0,0.0,0.0,-3.583088,0.0,0.0,0.5150796,-0.0
16.53,0.0,0.0,0.0,0.0,-3.578096,0.0,0.0,0.49921146,-0.0
16.54,0.0,0.0,0.0,0.0,-3.5730455,0.0,0.0,0.5050408,-0.0
16.55,0.0,0.0,0.0,0.0,-3.5679376,0.0,0.0,0.5107839,-0.0
16.56,0.0,0.0,0.0,0.0,-3.5629914,0.0,0.0,0.494615,-0.0
16.57,0.0,0.0,0.0,0.0,-3.5579898,0.0,0.0,0.5001435,-0.0
16.58,0.0,0.0,0.0,0.0,-3.552934,0.0,0.0,0.50558025,-0.0
16.59,0.0,0.0,0.0,0.0,-3.5480428,0.0,0.0,0.489105,-0.0
16.60,0.0,0.0,0.0,0.0,-3.5430994,0.0,0.0,0.49432716,-0.0
16.61,0.0,0.0,0.0,0.0,-3.5381048,0.0,0.0,0.49946293,-0.0
16.62,0.0,0.0,0.0,0.0,-3.5330596,0.0,0.0,0.50450665,-0.0
16.63,0.0,0.0,0.0,0.0,-3.5281832,0.0,0.0,0.48763296,-0.0
16.64,0.0,0.0,0.0,0.0,-3.5232587,0.0,0.0,0.49246213,-0.0
16.65,0.0,0.0,0.0,0.0,-3.5182867,0.0,0.0,0.4971993,-0.0
16.66,0.0,0.0,0.0,0.0,-3.5132682,0.0,0.0,0.5018499,-0.0
16.67,0.0,0.0,0.0,0.0,-3.5084224,0.0,0.0,0.48457757,-0.0
16.68,0.0,0.0,0.0,0.0,-3.5035324,0.0,0.0,0.48900798,-0.0
16.69,0.0,0.0,0.0,0.0,-3.4985988,0.0,0.0,0.49335724,-0.0
16.70,0.0,0.0,0.0,0.0,-3.4936228,0.0,0.0,0.49760896,-0.0
16.71,0.0,0.0,0.0,0.0,-3.488605,0.0,0.0,0.5017741,-0.0
16.72,0.0,0.0,0.0,0.0,-3.483765,0.0,0.0,0.48401067,-0.0
16.73,0.0,0.0,0.0,0.0,-3.4788852,0.0,0.0,0.48796093,-0.0
16.74,0.0,0.0,0.0,0.0,-3.473967,0.0,0.0,0.491819,-0.0
16.75,0.0,0.0,0.0,0.0,-3.4690113,0.0,0.0,0.495585,-0.0
16.76,0.0,0.0,0.0,0.0,-3.464237,0.0,0.0,0.47743326,-0.0
16.77,0.0,0.0,0.0,0.0,-3.459427,0.0,0.0,0.4809842,-0.0
16.78,0.0,0.0,0.0,0.0,-3.4545827,0.0,0.0,0.484443,-0.0
16.79,0.0,0.0,0.0,0.0,-3.4497046,0.0,0.0,0.48781502,-0.0
16.80,0.0,0.0,0.0,0.0,-3.4447937,0.0,0.0,0.49108937,-0.0
16.81,0.0,0.0,0.0,0.0,-3.4398508,0.0,0.0,0.49428234,-0.0
16.82,0.0,0.0,0.0,0.0,-3.4350953,0.0,0.0,0.47555214,-0.0
16.83,0.0,0.0,0.0,0.0,-3.43031,0.0,0.0,0.47852454,-0.0
16.84,0.0,0.0,0.0,0.0,-3.4254959,0.0,0.0,0.4814101,-0.0
16.85,0.0,0.0,0.0,0.0,-3.4206538,0.0,0.0,0.4841979,-0.0
16.86,0.0,0.0,0.0,0.0,-3.4157848,0.0,0.0,0.48689887,-0.0
16.87,0.0,0.0,0.0,0.0,-3.4108896,0.0,0.0,0.4895129,-0.0
16.88,0.0,0.0,0.0,0.0,-3.4061875,0.0,0.0,0.47020364,-0.0
16.89,0.0,0.0,0.0,0.0,-3.4014616,0.0,0.0,0.47259697,-0.0
16.90,0.0,0.0,0.0,0.0,-3.3967125,0.0,0.0,0.47490337,-0.0
16.91,0.0,0.0,0.0,0.0,-3.3919413,0.0,0.0,0.47711736,-0.0
16.92,0.0,0.0,0.0,0.0,-3.3871489,0.0,0.0,0.47923893,-0.0
16.93,0.0,0.0,0.0,0.0,-3.3823361,0.0,0.0,0.4812736,-0.0
16.94,0.0,0.0,0.0,0.0,-3.377504,0.0,0.0,0.4832103,-0.0
16.95,0.0,0.0,0.0,0.0,-3.3728719,0.0,0.0,0.46323448,-0.0
16.96,0.0,0.0,0.0,0.0,-3.3682222,0.0,0.0,0.46496123,-0.0
16.97,0.0,0.0,0.0,0.0,-3.3635564,0.0,0.0,0.46659547,-0.0
16.98,0.0,0.0,0.0,0.0,-3.358875,0.0,0.0,0.46813717,-0.0
16.99,0.0,0.0,0.0,0.0,-3.3541791,0.0,0.0,0.4695919,-0.0
17.00,0.0,0.0,0.0,0.0,-3.3494697,0.0,0.0,0.47095406,-0.0
17.01,0.0,0.0,0.0,0.0,-3.3447475,0.0,0.0,0.47222367,-0.0
17.02,0.0,0.0,0.0,0.0,-3.3400135,0.0,0.0,0.47340074,-0.0
17.03,0.0,0.0,0.0,0.0,-3.3352685,0.0,0.0,0.4744907,-0.0
17.04,0.0,0.0,0.0,0.0,-3.3305137,0.0,0.0,0.47548807,-0.0
17.05,0.0,0.0,0.0,0.0,-3.3257496,0.0,0.0,0.47639832,-0.0
17.06,0.0,0.0,0.0,0.0,-3.3209774,0.0,0.0,0.47721046,-0.0
17.07,0.0,0.0,0.0,0.0,-3.3164165,0.0,0.0,0.4561045,-0.0
17.08,0.0,0.0,0.0,0.0,-3.3118494,0.0,0.0,0.45670637,-0.0
17.09,0.0,0.0,0.0,0.0,-3.3072772,0.0,0.0,0.4572156,-0.0
17.10,0.0,0.0,0.0,0.0,-3.302701,0.0,0.0,0.45763215,-0.0
17.11,0.0,0.0,0.0,0.0,-3.2981215,0.0,0.0,0.45796147,-0.0
17.12,0.0,0.0,0.0,0.0,-3.2935395,0.0,0.0,0.4581927,-0.0
17.13,0.0,0.0,0.0,0.0,-3.2889562,0.0,0.0,0.45833665,-0.0
17.14,0.0,0.0,0.0,0.0,-3.2843723,0.0,0.0,0.4583933,-0.0
17.15,0.0,0.0,0.0,0.0,-3.2797887,0.0,0.0,0.45835182,-0.0
17.16,0.0,0.0,0.0,0.0,-3.2752066,0.0,0.0,0.45822847,-0.0
17.17,0.0,0.0,0.0,0.0,-3.2706265,0.0,0.0,0.4580015,-0.0
17.18,0.0,0.0,0.0,0.0,-3.2660496,0.0,0.0,0.45769262,-0.0
17.19,0.0,0.0,0.0,0.0,-3.2614768,0.0,0.0,0.45729098,-0.0
17.20,0.0,0.0,0.0,0.0,-3.256909,0.0,0.0,0.4567911,-0.0
17.21,0.0,0.0,0.0,0.0,-3.2523468,0.0,0.0,0.45620927,-0.0
17.22,0.0,0.0,0.0,0.0,-3.2477915,0.0,0.0,0.45552924,-0.0
17.23,0.0,0.0,0.0,0.0,-3.243244,0.0,0.0,0.45476177,-0.0
17.24,0.0,0.0,0.0,0.0,-3.238705,0.0,0.0,0.45390692,-0.0
17.25,0.0,0.0,0.0,0.0,-3.233957,0.0,0.0,0.47478473,-0.0
17.26,0.0,0.0,0.0,0.0,-3.2294376,0.0,0.0,0.45194355,-0.0
17.27,0.0,0.0,0.0,0.0,-3.2249293,0.0,0.0,0.45081553,-0.0
17.28,0.0,0.0,0.0,0.0,-3.2204335,0.0,0.0,0.44958916,-0.0
17.29,0.0,0.0,0.0,0.0,-3.2157326,0.0,0.0,0.47010085,-0.0
17.30,0.0,0.0,0.0,0.0,-3.2112637,0.0,0.0,0.446899,-0.0
17.31,0.0,0.0,0.0,0.0,-3.2065914,0.0,0.0,0.4672248,-0.0
17.32,0.0,0.0,0.0,0.0,-3.202153,0.0,0.0,0.4438425,-0.0
17.33,0.0,0.0,0.0,0.0,-3.197513,0.0,0.0,0.46398786,-0.0
17.34,0.0,0.0,0.0,0.0,-3.1928906,0.0,0.0,0.46225056,-0.0
17.35,0.0,0.0,0.0,0.0,-3.1885047,0.0,0.0,0.4385893,-0.0
17.36,0.0,0.0,0.0,0.0,-3.1839201,0.0,0.0,0.4584612,-0.0
17.37,0.0,0.0,0.0,0.0,-3.1793556,0.0,0.0,0.45645034,-0.0
17.38,0.0,0.0,0.0,0.0,-3.174812,0.0,0.0,0.45434645,-0.0
17.39,0.0,0.0,0.0,0.0,-3.1702905,0.0,0.0,0.45214957,-0.0
17.40,0.0,0.0,0.0,0.0,-3.165792,0.0,0.0,0.44985965,-0.0
17.41,0.0,0.0,0.0,0.0,-3.161317,0.0,0.0,0.44748205,-0.0
17.42,0.0,0.0,0.0,0.0,-3.156867,0.0,0.0,0.44500598,-0.0
17.43,0.0,0.0,0.0,0.0,-3.1524425,0.0,0.0,0.44244772,-0.0
17.44,0.0,0.0,0.0,0.0,-3.1480446,0.0,0.0,0.43979093,-0.0
17.45,0.0,0.0,0.0,0.0,-3.1436741,0.0,0.0,0.43704647,-0.0
17.46,0.0,0.0,0.0,0.0,-3.139332,0.0,0.0,0.4342089,-0.0
17.47,0.0,0.0,0.0,0.0,-3.1350193,0.0,0.0,0.4312782,-0.0
17.48,0.0,0.0,0.0,0.0,-3.1305184,0.0,0.0,0.4500853,-0.0
17.49,0.0,0.0,0.0,0.0,-3.1260483,0.0,0.0,0.44701502,-0.0
17.50,0.0,0.0,0.0,0.0,-3.12161,0.0,0.0,0.4438406,-0.0
17.51,0.0,0.0,0.0,0.0,-3.1172042,0.0,0.0,0.44057846,-0.0
17.52,0.0,0.0,0.0,0.0,-3.112832,0.0,0.0,0.43722317,-0.0
17.53,0.0,0.0,0.0,0.0,-3.1084943,0.0,0.0,0.4337801,-0.0
17.54,0.0,0.0,0.0,0.0,-3.1041918,0.0,0.0,0.43024382,-0.0
17.55,0.0,0.0,0.0,0.0,-3.0999255,0.0,0.0,0.42661434,-0.0
17.56,0.0,0.0,0.0,0.0,-3.0954783,0.0,0.0,0.44472262,-0.0
17.57,0.0,0.0,0.0,0.0,-3.0910687,0.0,0.0,0.44094786,-0.0
17.58,0.0,0.0,0.0,0.0,-3.086698,0.0,0.0,0.43707436,-0.0
17.59,0.0,0.0,0.0,0.0,-3.082367,0.0,0.0,0.43311307,-0.0
17.60,0.0,0.0,0.0,0.0,-3.0780764,0.0,0.0,0.42905846,-0.0
17.61,0.0,0.0,0.0,0.0,-3.0738273,0.0,0.0,0.42491063,-0.0
17.62,0.0,0.0,0.0,0.0,-3.0696204,0.0,0.0,0.42068034,-0.0
17.63,0.0,0.0,0.0,0.0,-3.0652387,0.0,0.0,0.43817687,-0.0
17.64,0.0,0.0,0.0,0.0,-3.060901,0.0,0.0,0.43379024,-0.0
17.65,0.0,0.0,0.0,0.0,-3.0566077,0.0,0.0,0.4293103,-0.0
17.66,0.0,0.0,0.0,0.0,-3.0523603,0.0,0.0,0.4247424,-0.0
17.67,0.0,0.0,0.0,0.0,-3.0481596,0.0,0.0,0.4200812,-0.0
17.68,0.0,0.0,0.0,0.0,-3.0437882,0.0,0.0,0.43714672,-0.0
17.69,0.0,0.0,0.0,0.0,-3.039465,0.0,0.0,0.43233445,-0.0
17.70,0.0,0.0,0.0,0.0,-3.0351906,0.0,0.0,0.4274343,-0.0
17.71,0.0,0.0,0.0,0.0,-3.0309663,0.0,0.0,0.42243525,-0.0
17.72,0.0,0.0,0.0,0.0,-3.0267928,0.0,0.0,0.41734824,-0.0
17.73,0.0,0.0,0.0,0.0,-3.0224528,0.0,0.0,0.4339988,-0.0
17.74,0.0,0.0,0.0,0.0,-3.018165,0.0,0.0,0.42876062,-0.0
17.75,0.0,0.0,0.0,0.0,-3.0139308,0.0,0.0,0.42342356,-0.0
17.76,0.0,0.0,0.0,0.0,-3.0097508,0.0,0.0,0.41800398,-0.0
17.77,0.0,0.0,0.0,0.0,-3.005626,0.0,0.0,0.41249093,-0.0
17.78,0.0,0.0,0.0,0.0,-3.0013387,0.0,0.0,0.42871535,-0.0
17.79,0.0,0.0,0.0,0.0,-2.9971082,0.0,0.0,0.423051,-0.0
17.80,0.0,0.0,0.0,0.0,-2.9929354,0.0,0.0,0.4172877,-0.0
17.81,0.0,0.0,0.0,0.0,-2.988821,0.0,0.0,0.4114418,-0.0
17.82,0.0,0.0,0.0,0.0,-2.9845479,0.0,0.0,0.42732793,-0.0
17.83,0.0,0.0,0.0,0.0,-2.9803345,0.0,0.0,0.42133063,-0.0
17.84,0.0,0.0,0.0,0.0,-2.9761822,0.0,0.0,0.41523984,-0.0
17.85,0.0,0.0,0.0,0.0,-2.9720917,0.0,0.0,0.4090555,-0.0
17.86,0.0,0.0,0.0,0.0,-2.9678457,0.0,0.0,0.42460856,-0.0
17.87,0.0,0.0,0.0,0.0,-2.9636629,0.0,0.0,0.4182727,-0.0
17.88,0.0,0.0,0.0,0.0,-2.9595444,0.0,0.0,0.41184872,-0.0
17.89,0.0,0.0,0.0,0.0,-2.955273,0.0,0.0,0.4271622,-0.0
17.90,0.0,0.0,0.0,0.0,-2.9510672,0.0,0.0,0.4205812,-0.0
17.91,0.0,0.0,0.0,0.0,-2.946928,0.0,0.0,0.4139121,-0.0
17.92,0.0,0.0,0.0,0.0,-2.9428566,0.0,0.0,0.40715477,-0.0
17.93,0.0,0.0,0.0,0.0,-2.9386353,0.0,0.0,0.42212397,-0.0
17.94,0.0,0.0,0.0,0.0,-2.9344833,0.0,0.0,0.41521505,-0.0
17.95,0.0,0.0,0.0,0.0,-2.930401,0.0,0.0,0.40821245,-0.0
17.96,0.0,0.0,0.0,0.0,-2.92639,0.0,0.0,0.40111628,-0.0
17.97,0.0,0.0,0.0,0.0,-2.9222324,0.0,0.0,0.41575193,-0.0
17.98,0.0,0.0,0.0,0.0,-2.9181473,0.0,0.0,0.40850398,-0.0
17.99,0.0,0.0,0.0,0.0,-2.9141357,0.0,0.0,0.4011733,-0.0
18.00,0.0,0.0,0.0,0.0,-2.90998,0.0,0.0,0.41556895,-0.0
18.01,0.0,0.0,0.0,0.0,-2.9058993,0.0,0.0,0.4080755,-0.0
18.02,0.0,0.0,0.0,0.0,-2.9018943,0.0,0.0,0.40049383,-0.0
18.03,0.0,0.0,0.0,0.0,-2.897748,0.0,0.0,0.41464394,-0.0
18.04,0.0,0.0,0.0,0.0,-2.893679,0.0,0.0,0.40691584,-0.0
18.05,0.0,0.0,0.0,0.0,-2.889688,0.0,0.0,0.39908856,-0.0
18.06,0.0,0.0,0.0,0.0,-2.8855581,0.0,0.0,0.4129985,-0.0
18.07,0.0,0.0,0.0,0.0,-2.8815079,0.0,0.0,0.40501928,-0.0
18.08,0.0,0.0,0.0,0.0,-2.8775384,0.0,0.0,0.39695174,-0.0
18.09,0.0,0.0,0.0,0.0,-2.8734322,0.0,0.0,0.41062137,-0.0
18.10,0.0,0.0,0.0,0.0,-2.8694081,0.0,0.0,0.40240186,-0.0
18.11,0.0,0.0,0.0,0.0,-2.8654673,0.0,0.0,0.39408854,-0.0
18.12,0.0,0.0,0.0,0.0,-2.8613923,0.0,0.0,0.40750697,-0.0
18.13,0.0,0.0,0.0,0.0,-2.8574018,0.0,0.0,0.39904702,-0.0
18.14,0.0,0.0,0.0,0.0,-2.8532786,0.0,0.0,0.41231877,-0.0
18.15,0.0,0.0,0.0,0.0,-2.8492415,0.0,0.0,0.4037067,-0.0
18.16,0.0,0.0,0.0,0.0,-2.8452916,0.0,0.0,0.3949954,-0.0
18.17,0.0,0.0,0.0,0.0,-2.8412113,0.0,0.0,0.40802664,-0.0
18.18,0.0,0.0,0.0,0.0,-2.8372197,0.0,0.0,0.39916858,-0.0
18.19,0.0,0.0,0.0,0.0,-2.8333175,0.0,0.0,0.39021662,-0.0
18.20,0.0,0.0,0.0,0.0,-2.8292875,0.0,0.0,0.40300182,-0.0
18.21,0.0,0.0,0.0,0.0,-2.8253486,0.0,0.0,0.39390314,-0.0
18.22,0.0,0.0,0.0,0.0,-2.8212833,0.0,0.0,0.40653607,-0.0
18.23,0.0,0.0,0.0,0.0,-2.8173106,0.0,0.0,0.39727965,-0.0
18.24,0.0,0.0,0.0,0.0,-2.8134313,0.0,0.0,0.38793474,-0.0
18.25,0.0,0.0,0.0,0.0,-2.809428,0.0,0.0,0.40032154,-0.0
18.26,0.0,0.0,0.0,0.0,-2.8055198,0.0,0.0,0.3908243,-0.0
18.27,0.0,0.0,0.0,0.0,-2.801489,0.0,0.0,0.4030641,-0.0
18.28,0.0,0.0,0.0,0.0,-2.797555,0.0,0.0,0.3934145,-0.0
18.29,0.0,0.0,0.0,0.0,-2.793718,0.0,0.0,0.38367644,-0.0
18.30,0.0,0.0,0.0,0.0,-2.7897615,0.0,0.0,0.39566448,-0.0
18.31,0.0,0.0,0.0,0.0,-2.7859037,0.0,0.0,0.38577396,-0.0
18.32,0.0,0.0,0.0,0.0,-2.7819276,0.0,0.0,0.39761502,-0.0
18.33,0.0,0.0,0.0,0.0,-2.7780519,0.0,0.0,0.38756657,-0.0
18.34,0.0,0.0,0.0,0.0,-2.7740593,0.0,0.0,0.39926058,-0.0
18.35,0.0,0.0,0.0,0.0,-2.7701685,0.0,0.0,0.38906503,-0.0
18.36,0.0,0.0,0.0,0.0,-2.7663808,0.0,0.0,0.3787755,-0.0
18.37,0.0,0.0,0.0,0.0,-2.7624786,0.0,0.0,0.39022297,-0.0
18.38,0.0,0.0,0.0,0.0,-2.7586808,0.0,0.0,0.3797809,-0.0
18.39,0.0,0.0,0.0,0.0,-2.75477,0.0,0.0,0.39107034,-0.0
18.40,0.0,0.0,0.0,0.0,-2.750965,0.0,0.0,0.38048106,-0.0
18.41,0.0,0.0,0.0,0.0,-2.7470489,0.0,0.0,0.3916233,-0.0
18.42,0.0,0.0,0.0,0.0,-2.74324,0.0,0.0,0.38087595,-0.0
18.43,0.0,0.0,0.0,0.0,-2.7393215,0.0,0.0,0.39187095,-0.0
18.44,0.0,0.0,0.0,0.0,-2.7355118,0.0,0.0,0.38097093,-0.0
18.45,0.0,0.0,0.0,0.0,-2.7315936,0.0,0.0,0.39181322,-0.0
18.46,0.0,0.0,0.0,0.0,-2.727786,0.0,0.0,0.3807659,-0.0
18.47,0.0,0.0,0.0,0.0,-2.7238715,0.0,0.0,0.39145547,-0.0
18.48,0.0,0.0,0.0,0.0,-2.720069,0.0,0.0,0.38024992,-0.0
18.49,0.0,0.0,0.0,0.0,-2.716161,0.0,0.0,0.39078125,-0.0
18.50,0.0,0.0,0.0,0.0,-2.7123668,0.0,0.0,0.37942833,-0.0
18.51,0.0,0.0,0.0,0.0,-2.7084687,0.0,0.0,0.3898123,-0.0
18.52,0.0,0.0,0.0,0.0,-2.7046854,0.0,0.0,0.37831202,-0.0
18.53,0.0,0.0,0.0,0.0,-2.7008,0.0,0.0,0.3885431,-0.0
18.54,0.0,0.0,0.0,0.0,-2.697031,0.0,0.0,0.3768845,-0.0
18.55,0.0,0.0,0.0,0.0,-2.6931615,0.0,0.0,0.38696274,-0.0
18.56,0.0,0.0,0.0,0.0,-2.68941,0.0,0.0,0.3751512,-0.0
18.57,0.0,0.0,0.0,0.0,-2.685559,0.0,0.0,0.38508195,-0.0
18.58,0.0,0.0,0.0,0.0,-2.6818278,0.0,0.0,0.37311745,-0.0
18.59,0.0,0.0,0.0,0.0,-2.6779988,0.0,0.0,0.38289523,-0.0
18.60,0.0,0.0,0.0,0.0,-2.674291,0.0,0.0,0.3707832,-0.0
18.61,0.0,0.0,0.0,0.0,-2.670487,0.0,0.0,0.38040257,-0.0
18.62,0.0,0.0,0.0,0.0,-2.6668055,0.0,0.0,0.36813754,-0.0
18.63,0.0,0.0,0.0,0.0,-2.6630294,0.0,0.0,0.3776093,-0.0
18.64,0.0,0.0,0.0,0.0,-2.6593776,0.0,0.0,0.36519122,-0.0
18.65,0.0,0.0,0.0,0.0,-2.6556325,0.0,0.0,0.37450445,-0.0
18.66,0.0,0.0,0.0,0.0,-2.652013,0.0,0.0,0.3619333,-0.0
18.67,0.0,0.0,0.0,0.0,-2.648302,0.0,0.0,0.37110436,-0.0
18.68,0.0,0.0,0.0,0.0,-2.6445,0.0,0.0,0.3802056,-0.0
18.69,0.0,0.0,0.0,0.0,-2.6408257,0.0,0.0,0.36742786,-0.0
18.70,0.0,0.0,0.0,0.0,-2.6370618,0.0,0.0,0.37638143,-0.0
18.71,0.0,0.0,0.0,0.0,-2.6334274,0.0,0.0,0.36344504,-0.0
18.72,0.0,0.0,0.0,0.0,-2.629705,0.0,0.0,0.3722454,-0.0
18.73,0.0,0.0,0.0,0.0,-2.6261134,0.0,0.0,0.3591558,-0.0
18.74,0.0,0.0,0.0,0.0,-2.6224353,0.0,0.0,0.36780843,-0.0
18.75,0.0,0.0,0.0,0.0,-2.6186714,0.0,0.0,0.37639657,-0.0
18.76,0.0,0.0,0.0,0.0,-2.6150405,0.0,0.0,0.36309478,-0.0
18.77,0.0,0.0,0.0,0.0,-2.6113253,0.0,0.0,0.37152967,-0.0
18.78,0.0,0.0,0.0,0.0,-2.6077445,0.0,0.0,0.35808006,-0.0
18.79,0.0,0.0,0.0,0.0,-2.604081,0.0,0.0,0.36636165,-0.0
18.80,0.0,0.0,0.0,0.0,-2.6003351,0.0,0.0,0.37458965,-0.0
18.81,0.0,0.0,0.0,0.0,-2.596726,0.0,0.0,0.36092767,-0.0
18.82,0.0,0.0,0.0,0.0,-2.593036,0.0,0.0,0.36899692,-0.0
18.83,0.0,0.0,0.0,0.0,-2.5894842,0.0,0.0,0.35518155,-0.0
18.84,0.0,0.0,0.0,0.0,-2.5858533,0.0,0.0,0.3630974,-0.0
18.85,0.0,0.0,0.0,0.0,-2.5821438,0.0,0.0,0.3709542,-0.0
18.86,0.0,0.0,0.0,0.0,-2.5785744,0.0,0.0,0.35692632,-0.0
18.87,0.0,0.0,0.0,0.0,-2.574928,0.0,0.0,0.3646351,-0.0
18.88,0.0,0.0,0.0,0.0,-2.5712051,0.0,0.0,0.37227938,-0.0
18.89,0.0,0.0,0.0,0.0,-2.5676248,0.0,0.0,0.35803896,-0.0
18.90,0.0,0.0,0.0,0.0,-2.5639696,0.0,0.0,0.36552975,-0.0
18.91,0.0,0.0,0.0,0.0,-2.5604582,0.0,0.0,0.35113585,-0.0
18.92,0.0,0.0,0.0,0.0,-2.5568733,0.0,0.0,0.3584786,-0.0
18.93,0.0,0.0,0.0,0.0,-2.5532157,0.0,0.0,0.36576217,-0.0
18.94,0.0,0.0,0.0,0.0,-2.5497043,0.0,0.0,0.35115013,-0.0
18.95,0.0,0.0,0.0,0.0,-2.5461216,0.0,0.0,0.35828015,-0.0
18.96,0.0,0.0,0.0,0.0,-2.542468,0.0,0.0,0.36535102,-0.0
18.97,0.0,0.0,0.0,0.0,-2.5389628,0.0,0.0,0.3505262,-0.0
18.98,0.0,0.0,0.0,0.0,-2.5353885,0.0,0.0,0.35744348,-0.0
18.99,0.0,0.0,0.0,0.0,-2.5317454,0.0,0.0,0.3643015,-0.0
19.00,0.0,0.0,0.0,0.0,-2.5282528,0.0,0.0,0.34926665,-0.0
19.01,0.0,0.0,0.0,0.0,-2.524693,0.0,0.0,0.35597104,-0.0
19.02,0.0,0.0,0.0,0.0,-2.521067,0.0,0.0,0.3626135,-0.0
19.03,0.0,0.0,0.0,0.0,-2.5175931,0.0,0.0,0.3473657,-0.0
19.04,0.0,0.0,0.0,0.0,-2.5140545,0.0,0.0,0.35385448,-0.0
19.05,0.0,0.0,0.0,0.0,-2.5104516,0.0,0.0,0.3602867,-0.0
19.06,0.0,0.0,0.0,0.0,-2.5070033,0.0,0.0,0.3448287,-0.0
19.07,0.0,0.0,0.0,0.0,-2.5034924,0.0,0.0,0.35110173,-0.0
19.08,0.0,0.0,0.0,0.0,-2.4999192,0.0,0.0,0.35732096,-0.0
19.09,0.0,0.0,0.0,0.0,-2.4965026,0.0,0.0,0.34164718,-0.0
19.10,0.0,0.0,0.0,0.0,-2.4930255,0.0,0.0,0.34771264,-0.0
19.11,0.0,0.0,0.0,0.0,-2.4894884,0.0,0.0,0.35371608,-0.0
19.12,0.0,0.0,0.0,0.0,-2.4858918,0.0,0.0,0.35966015,-0.0
19.13,0.0,0.0,0.0,0.0,-2.4824548,0.0,0.0,0.3437139,-0.0
19.14,0.0,0.0,0.0,0.0,-2.4789598,0.0,0.0,0.3495069,-0.0
19.15,0.0,0.0,0.0,0.0,-2.4754074,0.0,0.0,0.3552351,-0.0
19.16,0.0,0.0,0.0,0.0,-2.4720166,0.0,0.0,0.33907568,-0.0
19.17,0.0,0.0,0.0,0.0,-2.46857,0.0,0.0,0.34465274,-0.0
19.18,0.0,0.0,0.0,0.0,-2.4650683,0.0,0.0,0.35017318,-0.0
19.19,0.0,0.0,0.0,0.0,-2.461512,0.0,0.0,0.3556287,-0.0
19.20,0.0,0.0,0.0,0.0,-2.45812,0.0,0.0,0.33919936,-0.0
19.21,0.0,0.0,0.0,0.0,-2.4546752,0.0,0.0,0.34450105,-0.0
19.22,0.0,0.0,0.0,0.0,-2.4511778,0.0,0.0,0.34974602,-0.0
19.23,0.0,0.0,0.0,0.0,-2.447847,0.0,0.0,0.3331006,-0.0
19.24,0.0,0.0,0.0,0.0,-2.444465,0.0,0.0,0.3381916,-0.0
19.25,0.0,0.0,0.0,0.0,-2.4410326,0.0,0.0,0.3432205,-0.0
19.26,0.0,0.0,0.0,0.0,-2.4375508,0.0,0.0,0.3481899,-0.0
19.27,0.0,0.0,0.0,0.0,-2.4342382,0.0,0.0,0.33126888,-0.0
19.28,0.0,0.0,0.0,0.0,-2.4308772,0.0,0.0,0.33608705,-0.0
19.29,0.0,0.0,0.0,0.0,-2.4274688,0.0,0.0,0.3408457,-0.0
19.30,0.0,0.0,0.0,0.0,-2.4240134,0.0,0.0,0.34553948,-0.0
19.31,0.0,0.0,0.0,0.0,-2.4205117,0.0,0.0,0.35017645,-0.0
19.32,0.0,0.0,0.0,0.0,-2.4171824,0.0,0.0,0.332923,-0.0
19.33,0.0,0.0,0.0,0.0,-2.4138083,0.0,0.0,0.3374059,-0.0
19.34,0.0,0.0,0.0,0.0,-2.4103901,0.0,0.0,0.34182933,-0.0
19.35,0.0,0.0,0.0,0.0,-2.4069283,0.0,0.0,0.34619048,-0.0
19.36,0.0,0.0,0.0,0.0,-2.4036417,0.0,0.0,0.32866663,-0.0
19.37,0.0,0.0,0.0,0.0,-2.400313,0.0,0.0,0.33287367,-0.0
19.38,0.0,0.0,0.0,0.0,-2.3969426,0.0,0.0,0.33702117,-0.0
19.39,0.0,0.0,0.0,0.0,-2.3935316,0.0,0.0,0.3411119,-0.0
19.40,0.0,0.0,0.0,0.0,-2.3900802,0.0,0.0,0.34513757,-0.0
19.41,0.0,0.0,0.0,0.0,-2.3868074,0.0,0.0,0.32727817,-0.0
19.42,0.0,0.0,0.0,0.0,-2.383496,0.0,0.0,0.33114967,-0.0
19.43,0.0,0.0,0.0,0.0,-2.3801463,0.0,0.0,0.33496708,-0.0
19.44,0.0,0.0,0.0,0.0,-2.376759,0.0,0.0,0.33871943,-0.0
19.45,0.0,0.0,0.0,0.0,-2.373335,0.0,0.0,0.34241217,-0.0
19.46,0.0,0.0,0.0,0.0,-2.3700926,0.0,0.0,0.32421708,-0.0
19.47,0.0,0.0,0.0,0.0,-2.366815,0.0,0.0,0.3277583,-0.0
19.48,0.0,0.0,0.0,0.0,-2.3635027,0.0,0.0,0.33123723,-0.0
19.49,0.0,0.0,0.0,0.0,-2.360156,0.0,0.0,0.3346565,-0.0
19.50,0.0,0.0,0.0,0.0,-2.356776,0.0,0.0,0.33801344,-0.0
19.51,0.0,0.0,0.0,0.0,-2.3533628,0.0,0.0,0.3413107,-0.0
19.52,0.0,0.0,0.0,0.0,-2.3501356,0.0,0.0,0.32272282,-0.0
19.53,0.0,0.0,0.0,0.0,-2.3468769,0.0,0.0,0.32586852,-0.0
19.54,0.0,0.0,0.0,0.0,-2.3435874,0.0,0.0,0.32894912,-0.0
19.55,0.0,0.0,0.0,0.0,-2.3402677,0.0,0.0,0.3319755,-0.0
19.56,0.0,0.0,0.0,0.0,-2.3369184,0.0,0.0,0.33493674,-0.0
19.57,0.0,0.0,0.0,0.0,-2.33354,0.0,0.0,0.33784103,-0.0
19.58,0.0,0.0,0.0,0.0,-2.3303514,0.0,0.0,0.3188574,-0.0
19.59,0.0,0.0,0.0,0.0,-2.3271353,0.0,0.0,0.32160458,-0.0
19.60,0.0,0.0,0.0,0.0,-2.3238924,0.0,0.0,0.3242948,-0.0
19.61,0.0,0.0,0.0,0.0,-2.3206232,0.0,0.0,0.3269226,-0.0
19.62,0.0,0.0,0.0,0.0,-2.3173282,0.0,0.0,0.32949066,-0.0
19.63,0.0,0.0,0.0,0.0,-2.3140082,0.0,0.0,0.33199897,-0.0
19.64,0.0,0.0,0.0,0.0,-2.3106637,0.0,0.0,0.33444485,-0.0
19.65,0.0,0.0,0.0,0.0,-2.3075137,0.0,0.0,0.31500274,-0.0
19.66,0.0,0.0,0.0,0.0,-2.3043408,0.0,0.0,0.31729418,-0.0
19.67,0.0,0.0,0.0,0.0,-2.3011456,0.0,0.0,0.31952587,-0.0
19.68,0.0,0.0,0.0,0.0,-2.2979286,0.0,0.0,0.32170048,-0.0
19.69,0.0,0.0,0.0,0.0,-2.2946904,0.0,0.0,0.32380992,-0.0
19.70,0.0,0.0,0.0,0.0,-2.2914317,0.0,0.0,0.3258623,-0.0
19.71,0.0,0.0,0.0,0.0,-2.2881532,0.0,0.0,0.32785216,-0.0
19.72,0.0,0.0,0.0,0.0,-2.2848554,0.0,0.0,0.32978225,-0.0
19.73,0.0,0.0,0.0,0.0,-2.281757,0.0,0.0,0.3098243,-0.0
19.74,0.0,0.0,0.0,0.0,-2.2786412,0.0,0.0,0.31159985,-0.0
19.75,0.0,0.0,0.0,0.0,-2.2755082,0.0,0.0,0.3133156,-0.0
19.76,0.0,0.0,0.0,0.0,-2.2723584,0.0,0.0,0.3149688,-0.0
19.77,0.0,0.0,0.0,0.0,-2.2691927,0.0,0.0,0.31656218,-0.0
19.78,0.0,0.0,0.0,0.0,-2.2660117,0.0,0.0,0.3180985,-0.0
19.79,0.0,0.0,0.0,0.0,-2.262816,0.0,0.0,0.3195722,-0.0
19.80,0.0,0.0,0.0,0.0,-2.2596061,0.0,0.0,0.32098335,-0.0
19.81,0.0,0.0,0.0,0.0,-2.2563827,0.0,0.0,0.32233468,-0.0
19.82,0.0,0.0,0.0,0.0,-2.2531464,0.0,0.0,0.32362613,-0.0
19.83,0.0,0.0,0.0,0.0,-2.2498977,0.0,0.0,0.32485774,-0.0
19.84,0.0,0.0,0.0,0.0,-2.2468557,0.0,0.0,0.30419847,-0.0
19.85,0.0,0.0,0.0,0.0,-2.243803,0.0,0.0,0.30527544,-0.0
19.86,0.0,0.0,0.0,0.0,-2.24074,0.0,0.0,0.30629253,-0.0
19.87,0.0,0.0,0.0,0.0,-2.2376676,0.0,0.0,0.30724427,-0.0
19.88,0.0,0.0,0.0,0.0,-2.2345862,0.0,0.0,0.3081416,-0.0
19.89,0.0,0.0,0.0,0.0,-2.2314966,0.0,0.0,0.30897355,-0.0
19.90,0.0,0.0,0.0,0.0,-2.228399,0.0,0.0,0.30974832,-0.0
19.91,0.0,0.0,0.0,0.0,-2.2252944,0.0,0.0,0.31046045,-0.0
19.92,0.0,0.0,0.0,0.0,-2.2221832,0.0,0.0,0.31111267,-0.0
19.93,0.0,0.0,0.0,0.0,-2.2190661,0.0,0.0,0.31170496,-0.0
19.94,0.0,0.0,0.0,0.0,-2.2159438,0.0,0.0,0.3122346,-0.0
19.95,0.0,0.0,0.0,0.0,-2.2128167,0.0,0.0,0.31270432,-0.0
19.96,0.0,0.0,0.0,0.0,-2.2096856,0.0,0.0,0.31311408,-0.0
19.97,0.0,0.0,0.0,0.0,-2.2065508,0.0,0.0,0.31346118,-0.0
19.98,0.0,0.0,0.0,0.0,-2.2034132,0.0,0.0,0.31375104,-0.0
19.99,0.0,0.0,0.0,0.0,-2.2002735,0.0,0.0,0.31397548,-0.0
20.00,0.0,0.0,0.0,0.0,-2.197132,0.0,0.0,0.31414545,-0.0
20.01,0.0,0.0,0.0,0.0,-2.1939895,0.0,0.0,0.31424996,-0.0
20.02,0.0,0.0,0.0,0.0,-2.1908467,0.0,0.0,0.31429178,-0.0
20.03,0.0,0.0,0.0,0.0,-2.1877038,0.0,0.0,0.31427902,-0.0
20.04,0.0,0.0,0.0,0.0,-2.1845617,0.0,0.0,0.31420088,-0.0
20.05,0.0,0.0,0.0,0.0,-2.181421,0.0,0.0,0.3140627,-0.0
20.06,0.0,0.0,0.0,0.0,-2.1782825,0.0,0.0,0.31386453,-0.0
20.07,0.0,0.0,0.0,0.0,-2.1751466,0.0,0.0,0.31360364,-0.0
20.08,0.0,0.0,0.0,0.0,-2.1720138,0.0,0.0,0.31328544,-0.0
20.09,0.0,0.0,0.0,0.0,-2.169103,0.0,0.0,0.29107627,-0.0
20.10,0.0,0.0,0.0,0.0,-2.1659787,0.0,0.0,0.31243145,-0.0
20.11,0.0,0.0,0.0,0.0,-2.1630776,0.0,0.0,0.2900995,-0.0
20.12,0.0,0.0,0.0,0.0,-2.1599643,0.0,0.0,0.31133187,-0.0
20.13,0.0,0.0,0.0,0.0,-2.1568573,0.0,0.0,0.3107081,-0.0
20.14,0.0,0.0,0.0,0.0,-2.153757,0.0,0.0,0.31002423,-0.0
20.15,0.0,0.0,0.0,0.0,-2.1508827,0.0,0.0,0.28744936,-0.0
20.16,0.0,0.0,0.0,0.0,-2.1477983,0.0,0.0,0.30843884,-0.0
20.17,0.0,0.0,0.0,0.0,-2.1447225,0.0,0.0,0.3075721,-0.0
20.18,0.0,0.0,0.0,0.0,-2.141656,0.0,0.0,0.30664256,-0.0
20.19,0.0,0.0,0.0,0.0,-2.1385994,0.0,0.0,0.30565566,-0.0
20.20,0.0,0.0,0.0,0.0,-2.1355534,0.0,0.0,0.3046032,-0.0
20.21,0.0,0.0,0.0,0.0,-2.1325185,0.0,0.0,0.3034934,-0.0
20.22,0.0,0.0,0.0,0.0,-2.1294954,0.0,0.0,0.30232352,-0.0
20.23,0.0,0.0,0.0,0.0,-2.1264844,0.0,0.0,0.30108806,-0.0
20.24,0.0,0.0,0.0,0.0,-2.1234865,0.0,0.0,0.29979527,-0.0
20.25,0.0,0.0,0.0,0.0,-2.1205022,0.0,0.0,0.29843962,-0.0
20.26,0.0,0.0,0.0,0.0,-2.117532,0.0,0.0,0.29702657,-0.0
20.27,0.0,0.0,0.0,0.0,-2.1145766,0.0,0.0,0.2955507,-0.0
20.28,0.0,0.0,0.0,0.0,-2.1116364,0.0,0.0,0.29401195,-0.0
20.29,0.0,0.0,0.0,0.0,-2.1087122,0.0,0.0,0.29241583,-0.0
20.30,0.0,0.0,0.0,0.0,-2.1058047,0.0,0.0,0.29075682,-0.0
20.31,0.0,0.0,0.0,0.0,-2.1029143,0.0,0.0,0.28903496,-0.0
20.32,0.0,0.0,0.0,0.0,-2.1000419,0.0,0.0,0.28725567,-0.0
20.33,0.0,0.0,0.0,0.0,-2.0971878,0.0,0.0,0.28541353,-0.0
20.34,0.0,0.0,0.0,0.0,-2.0943527,0.0,0.0,0.2835112,-0.0
20.35,0.0,0.0,0.0,0.0,-2.091319,0.0,0.0,0.30337426,-0.0
20.36,0.0,0.0,0.0,0.0,-2.0883052,0.0,0.0,0.30138636,-0.0
20.37,0.0,0.0,0.0,0.0,-2.085312,0.0,0.0,0.29933012,-0.0
20.38,0.0,0.0,0.0,0.0,-2.0823398,0.0,0.0,0.29721642,-0.0
20.39,0.0,0.0,0.0,0.0,-2.0793893,0.0,0.0,0.2950425,-0.0
20.40,0.0,0.0,0.0,0.0,-2.0764613,0.0,0.0,0.29280573,-0.0
20.41,0.0,0.0,0.0,0.0,-2.0735562,0.0,0.0,0.2905115,-0.0
20.42,0.0,0.0,0.0,0.0,-2.0706747,0.0,0.0,0.2881516,-0.0
20.43,0.0,0.0,0.0,0.0,-2.0678172,0.0,0.0,0.2857342,-0.0
20.44,0.0,0.0,0.0,0.0,-2.0649846,0.0,0.0,0.2832539,-0.0
20.45,0.0,0.0,0.0,0.0,-2.0621774,0.0,0.0,0.28071064,-0.0
20.46,0.0,0.0,0.0,0.0,-2.0593963,0.0,0.0,0.2781099,-0.0
20.47,0.0,0.0,0.0,0.0,-2.0564234,0.0,0.0,0.29727718,-0.0
20.48,0.0,0.0,0.0,0.0,-2.0534775,0.0,0.0,0.29458526,-0.0
20.49,0.0,0.0,0.0,0.0,-2.0505593,0.0,0.0,0.29183036,-0.0
20.50,0.0,0.0,0.0,0.0,-2.0476692,0.0,0.0,0.28901798,-0.0
20.51,0.0,0.0,0.0,0.0,-2.0448077,0.0,0.0,0.28614533,-0.0
20.52,0.0,0.0,0.0,0.0,-2.0419755,0.0,0.0,0.28320974,-0.0
20.53,0.0,0.0,0.0,0.0,-2.0391734,0.0,0.0,0.28021115,-0.0
20.54,0.0,0.0,0.0,0.0,-2.0364017,0.0,0.0,0.2771523,-0.0
20.55,0.0,0.0,0.0,0.0,-2.0334432,0.0,0.0,0.29586416,-0.0
20.56,0.0,0.0,0.0,0.0,-2.0305161,0.0,0.0,0.29271677,-0.0
20.57,0.0,0.0,0.0,0.0,-2.027621,0.0,0.0,0.28950912,-0.0
20.58,0.0,0.0,0.0,0.0,-2.0247586,0.0,0.0,0.28623843,-0.0
20.59,0.0,0.0,0.0,0.0,-2.0219295,0.0,0.0,0.2829075,-0.0
20.60,0.0,0.0,0.0,0.0,-2.0191343,0.0,0.0,0.27951625,-0.0
20.61,0.0,0.0,0.0,0.0,-2.0163736,0.0,0.0,0.27606472,-0.0
20.62,0.0,0.0,0.0,0.0,-2.013648,0.0,0.0,0.2725502,-0.0
20.63,0.0,0.0,0.0,0.0,-2.01074,0.0,0.0,0.29080358,-0.0
20.64,0.0,0.0,0.0,0.0,-2.007868,0.0,0.0,0.2872031,-0.0
20.65,0.0,0.0,0.0,0.0,-2.0050328,0.0,0.0,0.28353688,-0.0
20.66,0.0,0.0,0.0,0.0,-2.0022347,0.0,0.0,0.27981034,-0.0
20.67,0.0,0.0,0.0,0.0,-1.9994744,0.0,0.0,0.2760235,-0.0
20.68,0.0,0.0,0.0,0.0,-1.9967526,0.0,0.0,0.27217633,-0.0
20.69,0.0,0.0,0.0,0.0,-1.9938517,0.0,0.0,0.29009706,-0.0
20.70,0.0,0.0,0.0,0.0,-1.9909902,0.0,0.0,0.2861557,-0.0
20.71,0.0,0.0,0.0,0.0,-1.9881686,0.0,0.0,0.28215948,-0.0
20.72,0.0,0.0,0.0,0.0,-1.9853876,0.0,0.0,0.27810016,-0.0
20.73,0.0,0.0,0.0,0.0,-1.9826478,0.0,0.0,0.2739778,-0.0
20.74,0.0,0.0,0.0,0.0,-1.9799498,0.0,0.0,0.2697951,-0.0
20.75,0.0,0.0,0.0,0.0,-1.977076,0.0,0.0,0.287383,-0.0
20.76,0.0,0.0,0.0,0.0,-1.974245,0.0,0.0,0.28310877,-0.0
20.77,0.0,0.0,0.0,0.0,-1.9714572,0.0,0.0,0.27877688,-0.0
20.78,0.0,0.0,0.0,0.0,-1.9687134,0.0,0.0,0.2743819,-0.0
20.79,0.0,0.0,0.0,0.0,-1.9660141,0.0,0.0,0.2699266,-0.0
20.80,0.0,0.0,0.0,0.0,-1.9633601,0.0,0.0,0.2654082,-0.0
20.81,0.0,0.0,0.0,0.0,-1.9605335,0.0,0.0,0.28266034,-0.0
20.82,0.0,0.0,0.0,0.0,-1.957753,0.0,0.0,0.27805305,-0.0
20.83,0.0,0.0,0.0,0.0,-1.9550191,0.0,0.0,0.27338538,-0.0
20.84,0.0,0.0,0.0,0.0,-1.9523326,0.0,0.0,0.26865458,-0.0
20.85,0.0,0.0,0.0,0.0,-1.9496939,0.0,0.0,0.26386616,-0.0
20.86,0.0,0.0,0.0,0.0,-1.9468855,0.0,0.0,0.28084007,-0.0
20.87,0.0,0.0,0.0,0.0,-1.9441259,0.0,0.0,0.27596,-0.0
20.88,0.0,0.0,0.0,0.0,-1.9414157,0.0,0.0,0.27101946,-0.0
20.89,0.0,0.0,0.0,0.0,-1.9387555,0.0,0.0,0.26601857,-0.0
20.90,0.0,0.0,0.0,0.0,-1.9359276,0.0,0.0,0.28278276,-0.0
20.91,0.0,0.0,0.0,0.0,-1.9331508,0.0,0.0,0.27769017,-0.0
20.92,0.0,0.0,0.0,0.0,-1.9304254,0.0,0.0,0.2725344,-0.0
20.93,0.0,0.0,0.0,0.0,-1.9277523,0.0,0.0,0.26731825,-0.0
20.94,0.0,0.0,0.0,0.0,-1.9251318,0.0,0.0,0.26204437,-0.0
20.95,0.0,0.0,0.0,0.0,-1.9223465,0.0,0.0,0.27853286,-0.0
20.96,0.0,0.0,0.0,0.0,-1.9196148,0.0,0.0,0.27316725,-0.0
20.97,0.0,0.0,0.0,0.0,-1.9169374,0.0,0.0,0.26773846,-0.0
20.98,0.0,0.0,0.0,0.0,-1.9143149,0.0,0.0,0.26224923,-0.0
20.99,0.0,0.0,0.0,0.0,-1.9115295,0.0,0.0,0.2785278,-0.0
21.00,0.0,0.0,0.0,0.0,-1.9088001,0.0,0.0,0.27294677,-0.0
21.01,0.0,0.0,0.0,0.0,-1.9061271,0.0,0.0,0.26730803,-0.0
21.02,0.0,0.0,0.0,0.0,-1.903511,0.0,0.0,0.2616034,-0.0
21.03,0.0,0.0,0.0,0.0,-1.9009526,0.0,0.0,0.2558437,-0.0
21.04,0.0,0.0,0.0,0.0,-1.8982341,0.0,0.0,0.27184638,-0.0
21.05,0.0,0.0,0.0,0.0,-1.8955742,0.0,0.0,0.26599213,-0.0
21.06,0.0,0.0,0.0,0.0,-1.8929734,0.0,0.0,0.26007745,-0.0
21.07,0.0,0.0,0.0,0.0,-1.8902141,0.0,0.0,0.27593052,-0.0
21.08,0.0,0.0,0.0,0.0,-1.8875148,0.0,0.0,0.26992396,-0.0
21.09,0.0,0.0,0.0,0.0,-1.8848763,0.0,0.0,0.26385963,-0.0
21.10,0.0,0.0,0.0,0.0,-1.882299,0.0,0.0,0.2577321,-0.0
21.11,0.0,0.0,0.0,0.0,-1.8795652,0.0,0.0,0.27336958,-0.0
21.12,0.0,0.0,0.0,0.0,-1.8768936,0.0,0.0,0.2671556,-0.0
21.13,0.0,0.0,0.0,0.0,-1.8742849,0.0,0.0,0.26087564,-0.0
21.14,0.0,0.0,0.0,0.0,-1.8717395,0.0,0.0,0.25453246,-0.0
21.15,0.0,0.0,0.0,0.0,-1.8690399,0.0,0.0,0.26996246,-0.0
21.16,0.0,0.0,0.0,0.0,-1.8664045,0.0,0.0,0.26353008,-0.0
21.17,0.0,0.0,0.0,0.0,-1.8638341,0.0,0.0,0.25703716,-0.0
21.18,0.0,0.0,0.0,0.0,-1.8613293,0.0,0.0,0.25048646,-0.0
21.19,0.0,0.0,0.0,0.0,-1.8586723,0.0,0.0,0.26570076,-0.0
21.20,0.0,0.0,0.0,0.0,-1.8560817,0.0,0.0,0.25905535,-0.0
21.21,0.0,0.0,0.0,0.0,-1.8535582,0.0,0.0,0.25234944,-0.0
21.22,0.0,0.0,0.0,0.0,-1.8508841,0.0,0.0,0.2674112,-0.0
21.23,0.0,0.0,0.0,0.0,-1.8482779,0.0,0.0,0.26061597,-0.0
21.24,0.0,0.0,0.0,0.0,-1.8457403,0.0,0.0,0.2537575,-0.0
21.25,0.0,0.0,0.0,0.0,-1.8430536,0.0,0.0,0.26866943,-0.0
21.26,0.0,0.0,0.0,0.0,-1.8404363,0.0,0.0,0.26172435,-0.0
21.27,0.0,0.0,0.0,0.0,-1.8378892,0.0,0.0,0.25471327,-0.0
21.28,0.0,0.0,0.0,0.0,-1.8354127,0.0,0.0,0.24764438,-0.0
21.29,0.0,0.0,0.0,0.0,-1.8327893,0.0,0.0,0.26234046,-0.0
21.30,0.0,0.0,0.0,0.0,-1.8302375,0.0,0.0,0.2551822,-0.0
21.31,0.0,0.0,0.0,0.0,-1.827758,0.0,0.0,0.24795794,-0.0
21.32,0.0,0.0,0.0,0.0,-1.825133,0.0,0.0,0.26250407,-0.0
21.33,0.0,0.0,0.0,0.0,-1.822581,0.0,0.0,0.25519043,-0.0
21.34,0.0,0.0,0.0,0.0,-1.8201029,0.0,0.0,0.24781623,-0.0
21.35,0.0,0.0,0.0,0.0,-1.8174808,0.0,0.0,0.26221243,-0.0
21.36,0.0,0.0,0.0,0.0,-1.8149333,0.0,0.0,0.25474605,-0.0
21.37,0.0,0.0,0.0,0.0,-1.8124611,0.0,0.0,0.24722187,-0.0
21.38,0.0,0.0,0.0,0.0,-1.8098465,0.0,0.0,0.2614626,-0.0
21.39,0.0,0.0,0.0,0.0,-1.8073081,0.0,0.0,0.25384352,-0.0
21.40,0.0,0.0,0.0,0.0,-1.8048464,0.0,0.0,0.24616657,-0.0
21.41,0.0,0.0,0.0,0.0,-1.8022438,0.0,0.0,0.26025727,-0.0
21.42,0.0,0.0,0.0,0.0,-1.799719,0.0,0.0,0.25248817,-0.0
21.43,0.0,0.0,0.0,0.0,-1.7972723,0.0,0.0,0.24466115,-0.0
21.44,0.0,0.0,0.0,0.0,-1.7946863,0.0,0.0,0.25859633,-0.0
21.45,0.0,0.0,0.0,0.0,-1.7921796,0.0,0.0,0.2506771,-0.0
21.46,0.0,0.0,0.0,0.0,-1.7895343,0.0,0.0,0.26452553,-0.0
21.47,0.0,0.0,0.0,0.0,-1.7869692,0.0,0.0,0.2565114,-0.0
21.48,0.0,0.0,0.0,0.0,-1.7844847,0.0,0.0,0.24843931,-0.0
21.49,0.0,0.0,0.0,0.0,-1.7820817,0.0,0.0,0.24030665,-0.0
21.50,0.0,0.0,0.0,0.0,-1.7795423,0.0,0.0,0.25393885,-0.0
21.51,0.0,0.0,0.0,0.0,-1.7770852,0.0,0.0,0.24571392,-0.0
21.52,0.0,0.0,0.0,0.0,-1.7744926,0.0,0.0,0.2592566,-0.0
21.53,0.0,0.0,0.0,0.0,-1.7719831,0.0,0.0,0.2509421,-0.0
21.54,0.0,0.0,0.0,0.0,-1.7695575,0.0,0.0,0.24256699,-0.0
21.55,0.0,0.0,0.0,0.0,-1.7669979,0.0,0.0,0.25595674,-0.0
21.56,0.0,0.0,0.0,0.0,-1.764523,0.0,0.0,0.2474866,-0.0
21.57,0.0,0.0,0.0,0.0,-1.7621334,0.0,0.0,0.23896123,-0.0
21.58,0.0,0.0,0.0,0.0,-1.7596114,0.0,0.0,0.25219804,-0.0
21.59,0.0,0.0,0.0,0.0,-1.7571756,0.0,0.0,0.24357766,-0.0
21.60,0.0,0.0,0.0,0.0,-1.7546083,0.0,0.0,0.25672758,-0.0
21.61,0.0,0.0,0.0,0.0,-1.7521281,0.0,0.0,0.24801756,-0.0
21.62,0.0,0.0,0.0,0.0,-1.7497357,0.0,0.0,0.23924418,-0.0
